Timestamp,accelX(g),accelY(g),accelZ(g),accelUserX(g),accelUserY(g),accelUserZ(g),gyroX(rad/s),gyroY(rad/s),gyroZ(rad/s),Roll(rads),Pitch(rads),Yaw(rads),Lat,Long,Speed(m/s),TrueHeading,Alt(m), HorizontalAccuracy(m), VerticalAccuracy(m),ActivityType,ActivityConfidence,Pressure(kilopascals),RelativeAltitude(meters),magX(µT),magY(µT),magZ(µT),calMagX,calMagY,calMagZ
26-Jun-2019 23:18:18.100,-0.0560,-0.4357,-0.9105, 0.0347,-0.0236,-0.0051,-0.1595,-0.1834,-0.0305,-0.0943, 0.4524,-0.9175,41.401803,-73.372952, 2.3200, 43.9916, 155.792206, 100.0, 32.0,Walking,Med, 99.7589, 0.6130, 62.2245,-31.2863,-622.2802, 0.0000, 0.0000, 0.0000
26-Jun-2019 23:18:18.110,-0.0560,-0.4357,-0.9105, 0.0347,-0.0236,-0.0051,-0.1595,-0.1834,-0.0305,-0.0943, 0.4524,-0.9175,41.401803,-73.372952, 2.3200, 43.9916, 155.792206, 100.0, 32.0,Walking,Med, 99.7589, 0.6130, 62.2245,-31.2863,-622.2802, 0.0000, 0.0000, 0.0000
26-Jun-2019 23:18:18.113,-0.0655,-0.4095,-0.9056, 0.0292,-0.0005,-0.0142,-0.1972,-0.1497,-0.0369,-0.0948, 0.4503,-0.9187,41.401803,-73.372952, 2.3200, 43.9916, 155.792206, 100.0, 32.0,Walking,Med, 99.7589, 0.6130, 61.5518,-30.9535,-619.9996, 0.0000, 0.0000, 0.0000
26-Jun-2019 23:18:18.116,-0.0655,-0.4095,-0.9056, 0.0216, 0.0229,-0.0081,-0.2063,-0.1124,-0.0067,-0.0968, 0.4471,-0.9193,41.401803,-73.372952, 2.3200, 43.9916, 155.792206, 100.0, 32.0,Walking,Med, 99.7589, 0.6130, 61.5518,-30.9535,-619.9996, 0.0000, 0.0000, 0.0000
26-Jun-2019 23:18:18.118,-0.0685,-0.3989,-0.8871, 0.0216, 0.0229,-0.0081,-0.2063,-0.1124,-0.0067,-0.0968, 0.4471,-0.9193,41.401803,-73.372952, 2.3200, 43.9916, 155.792206, 100.0, 32.0,Walking,Med, 99.7589, 0.6130, 61.5518,-30.9535,-619.9996, 0.0000, 0.0000, 0.0000
26-Jun-2019 23:18:18.121,-0.0685,-0.3989,-0.8871, 0.0216, 0.0229,-0.0081,-0.2063,-0.1124,-0.0067,-0.0968, 0.4471,-0.9193,41.401803,-73.372952, 2.3200, 43.9916, 155.792206, 100.0, 32.0,Walking,Med, 99.7589, 0.6130, 61.5518,-30.9535,-619.9996, 0.0000, 0.0000, 0.0000
26-Jun-2019 23:18:18.123,-0.0685,-0.3989,-0.8871, 0.0216, 0.0229,-0.0081,-0.2063,-0.1124,-0.0067,-0.0968, 0.4471,-0.9193,41.401803,-73.372952, 2.3200, 43.9916, 155.792206, 100.0, 32.0,Walking,Med, 99.7589, 0.6130, 61.5518,-30.9535,-619.9996, 0.0000, 0.0000, 0.0000
26-Jun-2019 23:18:18.126,-0.0685,-0.3989,-0.8871, 0.0216, 0.0229,-0.0081,-0.2063,-0.1124,-0.0067,-0.0968, 0.4471,-0.9193,41.401803,-73.372952, 2.3200, 43.9916, 155.792206, 100.0, 32.0,Walking,Med, 99.7589, 0.6130, 61.5518,-30.9535,-619.9996, 0.0000, 0.0000, 0.0000
26-Jun-2019 23:18:18.128,-0.0685,-0.3989,-0.8871, 0.0216, 0.0229,-0.0081,-0.2063,-0.1124,-0.0067,-0.0968, 0.4471,-0.9193,41.401803,-73.372952, 2.3200, 43.9916, 155.792206, 100.0, 32.0,Walking,Med, 99.7589, 0.6130, 61.5518,-30.9535,-619.9996, 0.0000, 0.0000, 0.0000
26-Jun-2019 23:18:18.145,-0.0503,-0.4020,-0.8743, 0.0369, 0.0274, 0.0246,-0.0324, 0.0778, 0.0835,-0.0967, 0.4438,-0.9181,41.401803,-73.372952, 2.3200, 43.9916, 155.792206, 100.0, 32.0,Walking,Med, 99.7589, 0.6130, 61.5518,-30.9535,-619.9996, 0.0000, 0.0000, 0.0000
26-Jun-2019 23:18:18.147,-0.0503,-0.4020,-0.8743, 0.0369, 0.0274, 0.0246,-0.0324, 0.0778, 0.0835,-0.0967, 0.4438,-0.9181,41.401803,-73.372952, 2.3200, 43.9916, 155.792206, 100.0, 32.0,Walking,Med, 99.7589, 0.6130, 61.5518,-30.9535,-619.9996, 0.0000, 0.0000, 0.0000
26-Jun-2019 23:18:18.149,-0.0527,-0.4226,-0.8788, 0.0369, 0.0274, 0.0246,-0.0324, 0.0778, 0.0835,-0.0967, 0.4438,-0.9181,41.401803,-73.372952, 2.3200, 43.9916, 155.792206, 100.0, 32.0,Walking,Med, 99.7589, 0.6130, 61.5518,-30.9535,-619.9996, 0.0000, 0.0000, 0.0000
26-Jun-2019 23:18:18.151,-0.0527,-0.4226,-0.8788, 0.0369, 0.0274, 0.0246,-0.0324, 0.0778, 0.0835,-0.0967, 0.4438,-0.9181,41.401803,-73.372952, 2.3200, 43.9916, 155.792206, 100.0, 32.0,Walking,Med, 99.7589, 0.6130, 61.5518,-30.9535,-619.9996, 0.0000, 0.0000, 0.0000
26-Jun-2019 23:18:18.153,-0.0527,-0.4226,-0.8788, 0.0369, 0.0274, 0.0246,-0.0324, 0.0778, 0.0835,-0.0967, 0.4438,-0.9181,41.401803,-73.372952, 2.3200, 43.9916, 155.792206, 100.0, 32.0,Walking,Med, 99.7589, 0.6130, 61.5518,-30.9535,-619.9996, 0.0000, 0.0000, 0.0000
26-Jun-2019 23:18:18.158,-0.0741,-0.4308,-0.8733, 0.0344, 0.0063, 0.0203,-0.1010, 0.1145, 0.0852,-0.0965, 0.4432,-0.9177,41.401803,-73.372952, 2.3200, 43.9916, 155.792206, 100.0, 32.0,Walking,Med, 99.7589, 0.6130, 62.3927,-31.4527,-620.8141, 0.0000, 0.0000, 0.0000
26-Jun-2019 23:18:18.172,-0.1022,-0.4279,-0.8917, 0.0121,-0.0035, 0.0267,-0.1738, 0.1723, 0.0545,-0.0955, 0.4415,-0.9172,41.401803,-73.372952, 2.3200, 43.9916, 155.792206, 100.0, 32.0,Walking,Med, 99.7589, 0.6130, 62.3927,-31.4527,-620.8141, 0.0000, 0.0000, 0.0000
26-Jun-2019 23:18:18.178,-0.1102,-0.4530,-0.9350,-0.0181,-0.0031, 0.0097,-0.1855, 0.2050, 0.0047,-0.0930, 0.4387,-0.9176,41.401803,-73.372952, 2.3200, 43.9916, 155.792206, 100.0, 32.0,Walking,Med, 99.7589, 0.6130, 62.3927,-31.4527,-620.8141, 0.0000, 0.0000, 0.0000
26-Jun-2019 23:18:18.188,-0.1104,-0.4834,-0.9315,-0.0256,-0.0284,-0.0336,-0.0965, 0.0683,-0.0194,-0.0937, 0.4385,-0.9174,41.401803,-73.372952, 2.3200, 43.9916, 155.792206, 100.0, 32.0,Walking,Med, 99.7589, 0.6130, 62.3927,-31.4527,-620.8141, 0.0000, 0.0000, 0.0000
26-Jun-2019 23:18:18.202,-0.1348,-0.4376,-0.8804,-0.0250,-0.0587,-0.0302, 0.0371,-0.0795, 0.0008,-0.0945, 0.4385,-0.9174,41.401803,-73.372952, 2.3200, 43.9916, 155.792206, 100.0, 32.0,Walking,Med, 99.7589, 0.6130, 62.0563,-32.1184,-620.4883, 0.0000, 0.0000, 0.0000
26-Jun-2019 23:18:18.207,-0.1290,-0.4361,-0.8634,-0.0464,-0.0123, 0.0203, 0.0631,-0.2028,-0.0137,-0.0978, 0.4394,-0.9177,41.401803,-73.372952, 2.3200, 43.9916, 155.792206, 100.0, 32.0,Walking,Med, 99.7589, 0.6130, 62.0563,-32.1184,-620.4883, 0.0000, 0.0000, 0.0000
26-Jun-2019 23:18:18.218,-0.1214,-0.4296,-0.8646,-0.0395,-0.0105, 0.0371, 0.0491,-0.2499,-0.0535,-0.0991, 0.4396,-0.9180,41.401803,-73.372952, 2.3200, 43.9916, 155.792206, 100.0, 32.0,Walking,Med, 99.7589, 0.6130, 62.0563,-32.1184,-620.4883, 0.0000, 0.0000, 0.0000
26-Jun-2019 23:18:18.227,-0.0862,-0.4163,-0.9008,-0.0287,-0.0035, 0.0353,-0.0375,-0.2007,-0.0852,-0.1027, 0.4401,-0.9183,41.401803,-73.372952, 2.3200, 43.9916, 155.792206, 100.0, 32.0,Walking,Med, 99.7589, 0.6130, 62.0563,-32.1184,-620.4883, 0.0000, 0.0000, 0.0000
26-Jun-2019 23:18:18.237,-0.0475,-0.4155,-0.9341, 0.0072, 0.0093,-0.0007,-0.0375,-0.2007,-0.0852,-0.1034, 0.4397,-0.9189,41.401803,-73.372952, 2.3200, 43.9916, 155.792206, 100.0, 32.0,Walking,Med, 99.7589, 0.6130, 61.0473,-30.4542,-621.4656, 0.0000, 0.0000, 0.0000
26-Jun-2019 23:18:18.249,-0.0478,-0.4152,-0.9140, 0.0469, 0.0077,-0.0330,-0.2008,-0.0272,-0.0189,-0.1044, 0.4371,-0.9200,41.401803,-73.372952, 2.3200, 43.9916, 155.792206, 100.0, 32.0,Walking,Med, 99.7589, 0.6130, 61.0473,-30.4542,-621.4656, 0.0000, 0.0000, 0.0000
26-Jun-2019 23:18:18.256,-0.0725,-0.4031,-0.9083, 0.0465, 0.0059,-0.0119,-0.2405, 0.0652, 0.0173,-0.1042, 0.4347,-0.9203,41.401803,-73.372952, 2.3200, 43.9916, 155.792206, 100.0, 32.0,Walking,Med, 99.7589, 0.6130, 61.0473,-30.4542,-621.4656, 0.0000, 0.0000, 0.0000
26-Jun-2019 23:18:18.266,-0.1036,-0.3896,-0.9186, 0.0209, 0.0162,-0.0053,-0.2405, 0.0652, 0.0173,-0.1030, 0.4326,-0.9207,41.401803,-73.372952, 2.3200, 43.9916, 155.792206, 100.0, 32.0,Walking,Med, 99.7589, 0.6130, 61.0473,-30.4542,-621.4656, 0.0000, 0.0000, 0.0000
26-Jun-2019 23:18:18.282,-0.1366,-0.3960,-0.9249,-0.0109, 0.0268,-0.0142,-0.2923, 0.1149, 0.0329,-0.1021, 0.4295,-0.9207,41.401803,-73.372952, 2.3200, 43.9916, 155.792206, 100.0, 32.0,Walking,Med, 99.7589, 0.6130, 62.0563,-30.1214,-620.8141, 0.0000, 0.0000, 0.0000
26-Jun-2019 23:18:18.294,-0.1538,-0.4085,-0.9139,-0.0447, 0.0143,-0.0175,-0.3298, 0.1041, 0.0849,-0.1009, 0.4227,-0.9199,41.401803,-73.372952, 2.3200, 43.9916, 155.792206, 100.0, 32.0,Walking,Med, 99.7589, 0.6130, 62.0563,-30.1214,-620.8141, 0.0000, 0.0000, 0.0000
26-Jun-2019 23:18:18.296,-0.1378,-0.4342,-0.9096,-0.0615,-0.0007,-0.0054,-0.2765, 0.0632, 0.1353,-0.1012, 0.4200,-0.9186,41.401803,-73.372952, 2.3200, 43.9916, 155.792206, 100.0, 32.0,Walking,Med, 99.7589, 0.6130, 62.0563,-30.1214,-620.8141, 0.0000, 0.0000, 0.0000
26-Jun-2019 23:18:18.306,-0.1080,-0.4334,-0.9204,-0.0615,-0.0007,-0.0054,-0.2765, 0.0632, 0.1353,-0.1012, 0.4200,-0.9186,41.401803,-73.372952, 2.3200, 45.0237, 155.792206, 100.0, 32.0,Walking,Med, 99.7589, 0.6130, 62.0563,-30.1214,-620.8141, 0.0000, 0.0000, 0.0000
26-Jun-2019 23:18:18.322,-0.1077,-0.4162,-0.9219,-0.0135,-0.0278,-0.0113,-0.1348,-0.0288, 0.2634,-0.1036, 0.4177,-0.9149,41.401803,-73.372952, 2.3200, 45.0237, 155.792206, 100.0, 32.0,Walking,Med, 99.7589, 0.6130, 61.0473,-29.7885,-619.5109, 0.0000, 0.0000, 0.0000
26-Jun-2019 23:18:18.326,-0.1048,-0.3998,-0.9020,-0.0094,-0.0125,-0.0123,-0.1000,-0.1178, 0.3038,-0.1077, 0.4155,-0.9102,41.401803,-73.372952, 2.3200, 45.0237, 155.792206, 100.0, 32.0,Walking,Med, 99.7589, 0.6130, 61.0473,-29.7885,-619.5109, 0.0000, 0.0000, 0.0000
26-Jun-2019 23:18:18.336,-0.0822,-0.4135,-0.8748,-0.0094,-0.0125,-0.0123,-0.1000,-0.1178, 0.3038,-0.1077, 0.4155,-0.9102,41.401803,-73.372952, 2.3200, 45.0237, 155.792206, 100.0, 32.0,Walking,Med, 99.7589, 0.6130, 61.0473,-29.7885,-619.5109, 0.0000, 0.0000, 0.0000
26-Jun-2019 23:18:18.352,-0.0711,-0.4311,-0.8778, 0.0204,-0.0115, 0.0351,-0.0751,-0.1231, 0.2530,-0.1123, 0.4137,-0.9059,41.401803,-73.372952, 2.3200, 45.0237, 155.792206, 100.0, 32.0,Walking,Med, 99.7589, 0.6130, 61.0473,-29.7885,-619.5109, 0.0000, 0.0000, 0.0000
26-Jun-2019 23:18:18.357,-0.0917,-0.4396,-0.8953, 0.0338,-0.0306, 0.0325,-0.0879,-0.0597, 0.1685,-0.1148, 0.4120,-0.9034,41.401803,-73.372952, 2.3200, 45.0237, 155.792206, 100.0, 32.0,Walking,Med, 99.7589, 0.6130, 61.5518,-29.6221,-620.9769, 0.0000, 0.0000, 0.0000
26-Jun-2019 23:18:18.364,-0.1070,-0.4494,-0.9139, 0.0338,-0.0306, 0.0325,-0.0879,-0.0597, 0.1685,-0.1148, 0.4120,-0.9034,41.401803,-73.372952, 2.3200, 45.0237, 155.792206, 100.0, 32.0,Walking,Med, 99.7589, 0.6130, 61.5518,-29.6221,-620.9769, 0.0000, 0.0000, 0.0000
26-Jun-2019 23:18:18.382,-0.1292,-0.4388,-0.9195,-0.0000,-0.0488,-0.0039,-0.0564,-0.0788, 0.1063,-0.1170, 0.4122,-0.9019,41.401803,-73.372952, 2.3200, 45.0237, 155.792206, 100.0, 32.0,Walking,Med, 99.7589, 0.6130, 61.5518,-29.6221,-620.9769, 0.0000, 0.0000, 0.0000
26-Jun-2019 23:18:18.386,-0.1348,-0.4238,-0.9163,-0.0195,-0.0388,-0.0096,-0.0204,-0.0943, 0.1582,-0.1199, 0.4115,-0.8995,41.401803,-73.372952, 2.3200, 43.9625, 155.792206, 100.0, 32.0,Walking,Med, 99.7589, 0.6130, 61.5518,-29.6221,-620.9769, 0.0000, 0.0000, 0.0000
26-Jun-2019 23:18:18.394,-0.1436,-0.4131,-0.8923,-0.0195,-0.0388,-0.0096,-0.0204,-0.0943, 0.1582,-0.1199, 0.4115,-0.8995,41.401803,-73.372952, 2.3200, 43.9625, 155.792206, 100.0, 32.0,Walking,Med, 99.7589, 0.6130, 59.8701,-30.2878,-621.3027, 0.0000, 0.0000, 0.0000
26-Jun-2019 23:18:18.407,-0.1372,-0.4180,-0.8680,-0.0310,-0.0133, 0.0174, 0.0643,-0.0272, 0.2699,-0.1231, 0.4113,-0.8955,41.401803,-73.372952, 2.3200, 43.9625, 155.792206, 100.0, 32.0,Walking,Med, 99.7589, 0.6130, 59.8701,-30.2878,-621.3027, 0.0000, 0.0000, 0.0000
26-Jun-2019 23:18:18.414,-0.1316,-0.4143,-0.8748,-0.0240,-0.0180, 0.0414, 0.0643,-0.0272, 0.2699,-0.1238, 0.4116,-0.8939,41.401803,-73.372952, 2.3200, 43.9625, 155.792206, 100.0, 32.0,Walking,Med, 99.7589, 0.6130, 59.8701,-30.2878,-621.3027, 0.0000, 0.0000, 0.0000
26-Jun-2019 23:18:18.425,-0.1171,-0.3944,-0.9033,-0.0164,-0.0126, 0.0337, 0.1219, 0.0383, 0.2971,-0.1261, 0.4135,-0.8901,41.401803,-73.372952, 2.3200, 43.9625, 155.792206, 100.0, 32.0,Walking,Med, 99.7589, 0.6130, 59.8701,-30.2878,-621.3027, 0.0000, 0.0000, 0.0000
26-Jun-2019 23:18:18.442,-0.0956,-0.4037,-0.9239,-0.0009, 0.0086, 0.0045, 0.1426, 0.1774, 0.4462,-0.1273, 0.4148,-0.8833,41.401803,-73.372952, 2.3200, 43.9625, 155.792206, 100.0, 32.0,Walking,Med, 99.7589, 0.6130, 59.8701,-30.2878,-621.3027, 0.0000, 0.0000, 0.0000
26-Jun-2019 23:18:18.447,-0.1097,-0.4368,-0.9251, 0.0214,-0.0007,-0.0162, 0.0833, 0.2328, 0.5863,-0.1282, 0.4148,-0.8737,41.401803,-73.372952, 2.3200, 43.9625, 155.792206, 100.0, 32.0,Walking,Med, 99.7589, 0.6130, 59.8701,-27.9580,-621.6285, 0.0000, 0.0000, 0.0000
26-Jun-2019 23:18:18.454,-0.1136,-0.6215,-0.8892, 0.0214,-0.0007,-0.0162, 0.0833, 0.2328, 0.5863,-0.1282, 0.4148,-0.8737,41.401803,-73.372952, 2.3200, 42.5082, 155.792206, 100.0, 32.0,Walking,Med, 99.7589, 0.6130, 59.8701,-27.9580,-621.6285, 0.0000, 0.0000, 0.0000
26-Jun-2019 23:18:18.463,-0.1894,-0.5938,-0.9017, 0.0037,-0.2200, 0.0191,-0.0274, 0.3917, 0.9073,-0.1284, 0.4132,-0.8603,41.401803,-73.372952, 2.3200, 42.5082, 155.792206, 100.0, 32.0,Walking,Med, 99.7589, 0.6130, 59.8701,-27.9580,-621.6285, 0.0000, 0.0000, 0.0000
26-Jun-2019 23:18:18.476,-0.1924,-0.5503,-0.8774,-0.0710,-0.1948, 0.0076,-0.0643, 0.3918, 0.9996,-0.1295, 0.4104,-0.8444,41.401803,-73.372952, 2.3200, 42.5082, 155.792206, 100.0, 32.0,Walking,Med, 99.7589, 0.6130, 60.2064,-27.2923,-622.2802, 0.0000, 0.0000, 0.0000
26-Jun-2019 23:18:18.483,-0.0909,-0.4827,-0.8708,-0.0710,-0.1948, 0.0076,-0.0643, 0.3918, 0.9996,-0.1295, 0.4104,-0.8444,41.401803,-73.372952, 2.3200, 42.5082, 155.792206, 100.0, 32.0,Walking,Med, 99.7589, 0.6130, 60.2064,-27.2923,-622.2802, 0.0000, 0.0000, 0.0000
26-Jun-2019 23:18:18.493,-0.0609,-0.4370,-0.8611, 0.0277,-0.0845, 0.0388,-0.0356, 0.4037, 0.9827,-0.1297, 0.4095,-0.8391,41.401803,-73.372952, 2.3200, 42.5082, 155.792206, 100.0, 32.0,Walking,Med, 99.7589, 0.6130, 60.2064,-27.2923,-622.2802, 0.0000, 0.0000, 0.0000
26-Jun-2019 23:18:18.504,-0.1290,-0.4179,-0.8098, 0.0580,-0.0404, 0.0491, 0.0027, 0.4045, 0.8498,-0.1299, 0.4078,-0.8252,41.401803,-73.372952, 2.3200, 42.5082, 155.792206, 100.0, 32.0,Walking,Med, 99.7589, 0.6130, 60.2064,-27.2923,-622.2802, 0.0000, 0.0000, 0.0000
26-Jun-2019 23:18:18.514,-0.1720,-0.3884,-0.7850,-0.0089,-0.0215, 0.1004, 0.0658, 0.2975, 0.8323,-0.1312, 0.4076,-0.8160,41.401803,-73.372952, 2.3200, 41.4097, 155.792206, 100.0, 32.0,Walking,Med, 99.7589, 0.6130, 60.2064,-27.2923,-622.2802, 0.0000, 0.0000, 0.0000
26-Jun-2019 23:18:18.524,-0.1410,-0.3704,-0.8380,-0.0486, 0.0103, 0.1238, 0.3720, 0.1652, 0.9577,-0.1349, 0.4101,-0.8003,41.401803,-73.372952, 2.3200, 41.4097, 155.792206, 100.0, 32.0,Walking,Med, 99.7589, 0.6130, 61.0473,-27.1259,-621.1399, 0.0000, 0.0000, 0.0000
26-Jun-2019 23:18:18.533,-0.0910,-0.3959,-0.8867,-0.0162, 0.0296, 0.0700, 0.3720, 0.1652, 0.9577,-0.1366, 0.4115,-0.7950,41.401803,-73.372952, 2.3200, 41.4097, 155.792206, 100.0, 32.0,Walking,Med, 99.7589, 0.6130, 61.0473,-27.1259,-621.1399, 0.0000, 0.0000, 0.0000
26-Jun-2019 23:18:18.544,-0.1095,-0.4461,-0.8726, 0.0370, 0.0070, 0.0195, 0.4439, 0.0814, 0.8716,-0.1403, 0.4147,-0.7852,41.401803,-73.372952, 2.3200, 39.3918, 155.792206, 100.0, 32.0,Walking,Med, 99.7589, 0.6130, 61.0473,-27.1259,-621.1399, 0.0000, 0.0000, 0.0000
26-Jun-2019 23:18:18.556,-0.1412,-0.4951,-0.8318, 0.0231,-0.0380, 0.0306, 0.5122, 0.0453, 0.7686,-0.1459, 0.4204,-0.7717,41.401803,-73.372952, 2.3200, 39.3918, 155.792206, 100.0, 32.0,Walking,Med, 99.7589, 0.6130, 61.0473,-27.1259,-621.1399, 0.0000, 0.0000, 0.0000
26-Jun-2019 23:18:18.566,-0.1664,-0.5491,-0.8056,-0.0050,-0.0816, 0.0685, 0.5336, 0.1640, 0.8573,-0.1502, 0.4263,-0.7565,41.401803,-73.372952, 2.3200, 39.3918, 155.792206, 100.0, 32.0,Walking,Med, 99.7589, 0.6130, 60.0382,-28.1244,-621.7914, 0.0000, 0.0000, 0.0000
26-Jun-2019 23:18:18.572,-0.1793,-0.5773,-0.7741,-0.0050,-0.0816, 0.0685, 0.5336, 0.1640, 0.8573,-0.1502, 0.4263,-0.7565,41.401803,-73.372952, 2.3200, 35.4579, 155.792206, 100.0, 32.0,Walking,Med, 99.7589, 0.6130, 60.0382,-28.1244,-621.7914, 0.0000, 0.0000, 0.0000
26-Jun-2019 23:18:18.582,-0.1900,-0.5654,-0.7672,-0.0422,-0.1616, 0.1250, 0.5714, 0.3053, 0.9873,-0.1513, 0.4287,-0.7507,41.401803,-73.372952, 2.3200, 35.4579, 155.792206, 100.0, 32.0,Walking,Med, 99.7589, 0.6130, 60.0382,-28.1244,-621.7914, 0.0000, 0.0000, 0.0000
26-Jun-2019 23:18:18.594,-0.2099,-0.5243,-0.7829,-0.0503,-0.1433, 0.1286, 0.6489, 0.3468, 1.1005,-0.1547, 0.4358,-0.7312,41.401803,-73.372952, 2.3200, 35.4579, 155.792206, 100.0, 32.0,Walking,Med, 99.7589, 0.6130, 60.0382,-28.1244,-621.7914, 0.0000, 0.0000, 0.0000
26-Jun-2019 23:18:18.602,-0.2609,-0.4812,-0.8195,-0.0690,-0.0970, 0.1102, 0.7550, 0.4287, 1.1663,-0.1565, 0.4416,-0.7170,41.401803,-73.372952, 2.3200, 33.3717, 155.792206, 100.0, 32.0,Walking,Med, 99.7589, 0.6130, 60.8791,-28.9565,-621.9543, 0.0000, 0.0000, 0.0000
26-Jun-2019 23:18:18.614,-0.3321,-0.4141,-0.8858,-0.1193,-0.0455, 0.0694, 0.8256, 0.6900, 1.4257,-0.1580, 0.4508,-0.6931,41.401803,-73.372952, 2.3200, 33.3717, 155.792206, 100.0, 32.0,Walking,Med, 99.7589, 0.6130, 60.8791,-28.9565,-621.9543, 0.0000, 0.0000, 0.0000
26-Jun-2019 23:18:18.624,-0.2422,-0.3141,-1.0783,-0.1901, 0.0237, 0.0020, 0.8256, 0.6900, 1.4257,-0.1586, 0.4532,-0.6840,41.401803,-73.372952, 2.3200, 33.3717, 155.792206, 100.0, 32.0,Walking,Med, 99.7589, 0.6130, 60.8791,-28.9565,-621.9543, 0.0000, 0.0000, 0.0000
26-Jun-2019 23:18:18.642, 0.0187,-0.2899,-1.1418,-0.0989, 0.1257,-0.1917, 0.5898, 0.7175, 1.5898,-0.1603, 0.4554,-0.6657,41.401803,-73.372952, 2.3200, 30.3864, 155.792206, 100.0, 32.0,Walking,Med, 99.7589, 0.6130, 60.8791,-28.9565,-621.9543, 0.0000, 0.0000, 0.0000
26-Jun-2019 23:18:18.644, 0.0187,-0.2899,-1.1418,-0.0989, 0.1257,-0.1917, 0.5898, 0.7175, 1.5898,-0.1603, 0.4554,-0.6657,41.401803,-73.372952, 2.3200, 30.3864, 155.792206, 100.0, 32.0,Walking,Med, 99.7589, 0.6130, 60.8791,-28.9565,-621.9543, 0.0000, 0.0000, 0.0000
26-Jun-2019 23:18:18.651, 0.0102,-0.4423,-0.9677, 0.1663, 0.1475,-0.2547,-0.0959, 0.2845, 1.1121,-0.1648, 0.4527,-0.6440,41.401803,-73.372952, 2.3200, 30.3864, 155.792206, 100.0, 32.0,Walking,Med, 99.7589, 0.6130, 63.0654,-29.1229,-621.1399, 0.0000, 0.0000, 0.0000
26-Jun-2019 23:18:18.661,-0.0616,-0.5289,-0.8040, 0.1598,-0.0077,-0.0796,-0.1149, 0.2154, 0.6344,-0.1668, 0.4495,-0.6337,41.401803,-73.372952, 2.3200, 30.3864, 155.792206, 100.0, 32.0,Walking,Med, 99.7589, 0.6130, 63.0654,-29.1229,-621.1399, 0.0000, 0.0000, 0.0000
26-Jun-2019 23:18:18.671,-0.1329,-0.5257,-0.7545, 0.0887,-0.0943, 0.0840, 0.0813, 0.0338, 0.3117,-0.1676, 0.4496,-0.6319,41.401803,-73.372952, 2.3200, 30.3864, 155.792206, 100.0, 32.0,Walking,Med, 99.7589, 0.6130, 63.0654,-29.1229,-621.1399, 0.0000, 0.0000, 0.0000
26-Jun-2019 23:18:18.683,-0.1667,-0.5078,-0.7857, 0.0192,-0.0892, 0.1322, 0.3118,-0.0969, 0.1781,-0.1698, 0.4518,-0.6293,41.401803,-73.372952, 2.3200, 30.3864, 155.792206, 100.0, 32.0,Walking,Med, 99.7589, 0.6130, 60.3746,-29.4557,-624.0721, 0.0000, 0.0000, 0.0000
26-Jun-2019 23:18:18.690,-0.1700,-0.5096,-0.8082,-0.0101,-0.0614, 0.0954, 0.4734,-0.1114, 0.2293,-0.1759, 0.4628,-0.6234,41.401803,-73.372952, 2.3200, 28.7723, 155.792206, 100.0, 32.0,Walking,Med, 99.7589, 0.6130, 60.3746,-29.4557,-624.0721, 0.0000, 0.0000, 0.0000
26-Jun-2019 23:18:18.700,-0.2033,-0.4973,-0.7717,-0.0121,-0.0609, 0.0714, 0.5816,-0.0812, 0.3825,-0.1776, 0.4653,-0.6208,41.401803,-73.372952, 2.3200, 28.7723, 155.792206, 100.0, 32.0,Walking,Med, 99.7589, 0.6130, 60.3746,-29.4557,-624.0721, 0.0000, 0.0000, 0.0000
26-Jun-2019 23:18:18.712,-0.2640,-0.4528,-0.8069,-0.0421,-0.0432, 0.1045, 0.7615,-0.0951, 0.5427,-0.1820, 0.4713,-0.6139,41.401803,-73.372952, 2.3200, 28.7723, 155.792206, 100.0, 32.0,Walking,Med, 99.7581, 0.6844, 60.3746,-29.4557,-624.0721, 0.0000, 0.0000, 0.0000
26-Jun-2019 23:18:18.720,-0.2688,-0.4260,-0.9100,-0.0974, 0.0108, 0.0634, 0.8727,-0.0331, 0.6708,-0.1891, 0.4820,-0.6002,41.401803,-73.372952, 2.3200, 24.9374, 155.792206, 100.0, 32.0,Walking,Med, 99.7581, 0.6844, 60.5428,-29.9550,-622.2802, 0.0000, 0.0000, 0.0000
26-Jun-2019 23:18:18.729,-0.2150,-0.3924,-1.0033,-0.1010, 0.0404,-0.0415, 0.8118, 0.1787, 0.7931,-0.1909, 0.4852,-0.5949,41.401803,-73.372952, 2.3200, 24.9374, 155.792206, 100.0, 32.0,Walking,Med, 99.7581, 0.6844, 60.5428,-29.9550,-622.2802, 0.0000, 0.0000, 0.0000
26-Jun-2019 23:18:18.742,-0.1598,-0.3404,-1.0779,-0.0456, 0.0779,-0.1372, 0.5662, 0.3645, 0.8934,-0.1932, 0.4897,-0.5839,41.401803,-73.372952, 2.3200, 24.9374, 155.792206, 100.0, 32.0,Walking,Med, 99.7581, 0.6844, 60.5428,-29.9550,-622.2802, 0.0000, 0.0000, 0.0000
26-Jun-2019 23:18:18.750,-0.1351,-0.3051,-1.1399, 0.0116, 0.1306,-0.2125, 0.2338, 0.3809, 0.8786,-0.1955, 0.4904,-0.5687,41.401803,-73.372952, 2.3200, 23.9107, 155.792206, 100.0, 32.0,Walking,Med, 99.7581, 0.6844, 60.5428,-29.9550,-622.2802, 0.0000, 0.0000, 0.0000
26-Jun-2019 23:18:18.760,-0.1497,-0.3479,-1.0611, 0.0372, 0.1646,-0.2740,-0.1382, 0.2242, 0.7470,-0.1964, 0.4890,-0.5648,41.401803,-73.372952, 2.3200, 23.9107, 155.792206, 100.0, 32.0,Walking,Med, 99.7581, 0.6844, 60.8791,-30.9535,-622.2802, 0.0000, 0.0000, 0.0000
26-Jun-2019 23:18:18.772,-0.1660,-0.4359,-0.9909, 0.0234, 0.1182,-0.1935,-0.3140, 0.2731, 0.5383,-0.1969, 0.4850,-0.5589,41.401803,-73.372952, 2.3200, 23.9107, 155.792206, 100.0, 32.0,Walking,Med, 99.7581, 0.6844, 60.8791,-30.9535,-622.2802, 0.0000, 0.0000, 0.0000
26-Jun-2019 23:18:18.779,-0.2530,-0.5079,-0.9542, 0.0077, 0.0246,-0.1204,-0.3565, 0.1965, 0.3686,-0.1970, 0.4785,-0.5538,41.401803,-73.372952, 2.3200, 23.9107, 155.792206, 100.0, 32.0,Walking,Med, 99.7581, 0.6844, 60.8791,-30.9535,-622.2802, 0.0000, 0.0000, 0.0000
26-Jun-2019 23:18:18.789,-0.3255,-0.5492,-0.8574,-0.0771,-0.0490,-0.0833,-0.2596,-0.2271, 0.4415,-0.1993, 0.4768,-0.5517,41.401803,-73.372952, 2.3200, 23.9107, 155.792206, 100.0, 32.0,Walking,Med, 99.7581, 0.6844, 60.8791,-30.9535,-622.2802, 0.0000, 0.0000, 0.0000
26-Jun-2019 23:18:18.802,-0.2104,-0.4795,-1.0108,-0.1374,-0.0907, 0.0112, 0.0149,-0.8371, 0.6862,-0.2132, 0.4763,-0.5434,41.401803,-73.372952, 2.3200, 23.9107, 155.792206, 100.0, 32.0,Walking,Med, 99.7581, 0.6844, 61.0473,-28.7900,-623.0947, 0.0000, 0.0000, 0.0000
26-Jun-2019 23:18:18.809,-0.1216,-0.4202,-0.9293,-0.0091,-0.0234,-0.1439,-0.0300,-0.6812, 0.6157,-0.2282, 0.4736,-0.5337,41.401803,-73.372952, 2.3200, 22.7565, 155.792206, 100.0, 32.0,Walking,Med, 99.7581, 0.6844, 61.0473,-28.7900,-623.0947, 0.0000, 0.0000, 0.0000
26-Jun-2019 23:18:18.819,-0.1440,-0.4581,-0.8612, 0.0826, 0.0347,-0.0625,-0.1513,-0.3944, 0.4501,-0.2313, 0.4723,-0.5315,41.401803,-73.372952, 2.3200, 22.7565, 155.792206, 100.0, 32.0,Walking,Med, 99.7581, 0.6844, 61.0473,-28.7900,-623.0947, 0.0000, 0.0000, 0.0000
26-Jun-2019 23:18:18.832,-0.2132,-0.4721,-0.8311, 0.0653,-0.0058, 0.0058,-0.2096,-0.3171, 0.4512,-0.2369, 0.4693,-0.5272,41.401803,-73.372952, 2.3200, 22.7565, 155.792206, 100.0, 32.0,Walking,Med, 99.7581, 0.6844, 61.0473,-28.7900,-623.0947, 0.0000, 0.0000, 0.0000
26-Jun-2019 23:18:18.838,-0.2819,-0.4685,-0.8835, 0.0040,-0.0243, 0.0362,-0.2088,-0.3223, 0.4812,-0.2454, 0.4643,-0.5203,41.401803,-73.372952, 2.3200, 20.6692, 155.792206, 100.0, 32.0,Walking,Med, 99.7581, 0.6844, 59.0292,-28.4572,-622.4431, 0.0000, 0.0000, 0.0000
26-Jun-2019 23:18:18.849,-0.3225,-0.4883,-0.9410,-0.0609,-0.0223,-0.0163,-0.2363,-0.3702, 0.5361,-0.2495, 0.4626,-0.5173,41.401803,-73.372952, 2.3200, 20.6692, 155.792206, 100.0, 32.0,Walking,Med, 99.7581, 0.6844, 59.0292,-28.4572,-622.4431, 0.0000, 0.0000, 0.0000
26-Jun-2019 23:18:18.860,-0.3419,-0.4757,-0.9488,-0.0953,-0.0456,-0.0736,-0.2469,-0.4021, 0.5718,-0.2562, 0.4587,-0.5120,41.401803,-73.372952, 2.3200, 20.6692, 155.792206, 100.0, 32.0,Walking,Med, 99.7581, 0.6844, 59.0292,-28.4572,-622.4431, 0.0000, 0.0000, 0.0000
26-Jun-2019 23:18:18.868,-0.3153,-0.4262,-0.9476,-0.1046,-0.0375,-0.0818,-0.2028,-0.4914, 0.5089,-0.2671, 0.4537,-0.5049,41.401803,-73.372952, 2.3200, 19.3139, 155.792206, 100.0, 32.0,Walking,Med, 99.7581, 0.6844, 59.0292,-28.4572,-622.4431, 0.0000, 0.0000, 0.0000
26-Jun-2019 23:18:18.879,-0.2265,-0.4123,-0.9426,-0.0749, 0.0110,-0.0810,-0.1586,-0.5225, 0.3532,-0.2706, 0.4524,-0.5032,41.401803,-73.372952, 2.3200, 19.3139, 155.792206, 100.0, 32.0,Walking,Med, 99.7581, 0.6844, 58.0202,-26.4602,-621.7914, 0.0000, 0.0000, 0.0000
26-Jun-2019 23:18:18.892,-0.1824,-0.4191,-0.9135, 0.0197, 0.0230,-0.0767,-0.1338,-0.5188, 0.1647,-0.2770, 0.4504,-0.5015,41.401803,-73.372952, 2.3200, 19.3139, 155.792206, 100.0, 32.0,Walking,Med, 99.7581, 0.6844, 58.0202,-26.4602,-621.7914, 0.0000, 0.0000, 0.0000
26-Jun-2019 23:18:18.897,-0.1920,-0.4353,-0.8876, 0.0687, 0.0133,-0.0475,-0.1395,-0.4382, 0.0928,-0.2822, 0.4471,-0.5016,41.401803,-73.372952, 2.3200, 16.9981, 155.792206, 100.0, 32.0,Walking,Med, 99.7581, 0.6844, 58.0202,-26.4602,-621.7914, 0.0000, 0.0000, 0.0000
26-Jun-2019 23:18:18.910,-0.2261,-0.4513,-0.8786, 0.0607,-0.0040,-0.0215,-0.2097,-0.2758, 0.1231,-0.2839, 0.4459,-0.5013,41.401803,-73.372952, 2.3200, 16.9981, 155.792206, 100.0, 32.0,Walking,Med, 99.7581, 0.6844, 58.0202,-26.4602,-621.7914, 0.0000, 0.0000, 0.0000
26-Jun-2019 23:18:18.917,-0.2780,-0.4541,-0.8776, 0.0291,-0.0231,-0.0117,-0.3135,-0.1113, 0.2180,-0.2862, 0.4426,-0.5002,41.401803,-73.372952, 2.3200, 16.9981, 155.792206, 100.0, 32.0,Walking,Med, 99.7581, 0.6844, 58.0202,-26.4602,-621.7914, 0.0000, 0.0000, 0.0000
26-Jun-2019 23:18:18.927,-0.3428,-0.4346,-0.9051,-0.0197,-0.0324,-0.0085,-0.3921,-0.0305, 0.3542,-0.2889, 0.4354,-0.4966,41.401803,-73.372952, 2.3200, 18.1356, 155.792206, 100.0, 32.0,Walking,Med, 99.7581, 0.6844, 57.8520,-27.9580,-622.6060, 0.0000, 0.0000, 0.0000
26-Jun-2019 23:18:18.939,-0.3841,-0.4087,-0.9393,-0.0815,-0.0155,-0.0356,-0.4118,-0.0516, 0.4461,-0.2920, 0.4324,-0.4941,41.401803,-73.372952, 2.3200, 18.1356, 155.792206, 100.0, 32.0,Walking,Med, 99.7581, 0.6844, 57.8520,-27.9580,-622.6060, 0.0000, 0.0000, 0.0000
26-Jun-2019 23:18:18.948,-0.4023,-0.4138,-0.9603,-0.1189, 0.0057,-0.0686,-0.3687,-0.2309, 0.5064,-0.2956, 0.4273,-0.4902,41.401803,-73.372952, 2.3200, 18.1356, 155.792206, 100.0, 32.0,Walking,Med, 99.7581, 0.6844, 57.8520,-27.9580,-622.6060, 0.0000, 0.0000, 0.0000
26-Jun-2019 23:18:18.957,-0.4091,-0.4395,-0.9515,-0.1265,-0.0051,-0.0903,-0.2639,-0.5472, 0.5124,-0.3070, 0.4210,-0.4836,41.401803,-73.372952, 2.3200, 18.1356, 155.792206, 100.0, 32.0,Walking,Med, 99.7581, 0.6844, 57.8520,-27.9580,-622.6060, 0.0000, 0.0000, 0.0000
26-Jun-2019 23:18:18.967,-0.3726,-0.4547,-0.9337,-0.1265,-0.0051,-0.0903,-0.2639,-0.5472, 0.5124,-0.3070, 0.4210,-0.4836,41.401803,-73.372952, 2.3200, 18.1356, 155.792206, 100.0, 32.0,Walking,Med, 99.7581, 0.6844, 56.3384,-27.4587,-622.7689, 0.0000, 0.0000, 0.0000
26-Jun-2019 23:18:18.977,-0.2988,-0.4651,-0.9293,-0.0833,-0.0503,-0.0661,-0.1499,-0.7988, 0.4640,-0.3219, 0.4164,-0.4771,41.401803,-73.372952, 2.3200, 18.1356, 155.792206, 100.0, 32.0,Walking,Med, 99.7581, 0.6844, 56.3384,-27.4587,-622.7689, 0.0000, 0.0000, 0.0000
26-Jun-2019 23:18:18.986,-0.2330,-0.4521,-0.9115, 0.0028,-0.0654,-0.0637,-0.1918,-0.6915, 0.4807,-0.3353, 0.4112,-0.4708,41.401803,-73.372952, 2.3200, 18.1356, 155.792206, 100.0, 32.0,Walking,Med, 99.7581, 0.6844, 56.3384,-27.4587,-622.7689, 0.0000, 0.0000, 0.0000
26-Jun-2019 23:18:18.996,-0.1663,-0.4178,-0.8697, 0.0028,-0.0654,-0.0637,-0.1918,-0.6915, 0.4807,-0.3353, 0.4112,-0.4708,41.401803,-73.372952, 2.3200, 16.2426, 155.792206, 100.0, 32.0,Walking,Med, 99.7581, 0.6844, 56.3384,-27.4587,-622.7689, 0.0000, 0.0000, 0.0000
26-Jun-2019 23:18:19.006,-0.1586,-0.3898,-0.8245, 0.1438,-0.0243,-0.0043,-0.3131,-0.3094, 0.4541,-0.3441, 0.4045,-0.4653,41.401803,-73.372952, 2.3200, 16.2426, 155.792206, 100.0, 32.0,Walking,Med, 99.7581, 0.6844, 55.8339,-26.9595,-621.3027, 0.0000, 0.0000, 0.0000
26-Jun-2019 23:18:19.016,-0.2117,-0.3623,-0.7980, 0.1562,-0.0017, 0.0416,-0.2708,-0.1708, 0.4350,-0.3486, 0.3986,-0.4604,41.401803,-73.372952, 2.3200, 16.2426, 155.792206, 100.0, 32.0,Walking,Med, 99.7581, 0.6844, 55.8339,-26.9595,-621.3027, 0.0000, 0.0000, 0.0000
26-Jun-2019 23:18:19.026,-0.2998,-0.3371,-0.7868, 0.1562,-0.0017, 0.0416,-0.2708,-0.1708, 0.4350,-0.3486, 0.3986,-0.4604,41.401803,-73.372952, 2.3200, 16.2426, 155.792206, 100.0, 32.0,Walking,Med, 99.7581, 0.6844, 55.8339,-26.9595,-621.3027, 0.0000, 0.0000, 0.0000
26-Jun-2019 23:18:19.036,-0.3714,-0.3360,-0.8104, 0.0189, 0.0477, 0.0794, 0.0052,-0.0343, 0.4837,-0.3525, 0.3950,-0.4539,41.401803,-73.372952, 2.3200, 16.2426, 155.792206, 100.0, 32.0,Walking,Med, 99.7581, 0.6844, 55.8339,-26.9595,-621.3027, 0.0000, 0.0000, 0.0000
26-Jun-2019 23:18:19.045,-0.3698,-0.3678,-0.7548,-0.0497, 0.0471, 0.0555, 0.1149, 0.0073, 0.5620,-0.3557, 0.3932,-0.4449,41.401803,-73.372952, 2.3200, 16.2426, 155.792206, 100.0, 32.0,Walking,Med, 99.7581, 0.6844, 54.4885,-24.6296,-622.2802, 0.0000, 0.0000, 0.0000
26-Jun-2019 23:18:19.056,-0.3113,-0.4625,-0.8046,-0.0497, 0.0471, 0.0555, 0.1149, 0.0073, 0.5620,-0.3557, 0.3932,-0.4449,41.401803,-73.372952, 2.3200, 14.0672, 155.792206, 100.0, 32.0,Walking,Med, 99.7581, 0.6844, 54.4885,-24.6296,-622.2802, 0.0000, 0.0000, 0.0000
26-Jun-2019 23:18:19.065,-0.3217,-0.4639,-0.9318, 0.0103,-0.0839, 0.0633,-0.0842, 0.3877, 0.8140,-0.3549, 0.3882,-0.4338,41.401803,-73.372952, 2.3200, 14.0672, 155.792206, 100.0, 32.0,Walking,Med, 99.7581, 0.6844, 54.4885,-24.6296,-622.2802, 0.0000, 0.0000, 0.0000
26-Jun-2019 23:18:19.075,-0.3472,-0.4035,-0.9475, 0.0007,-0.0917,-0.0614,-0.1667, 0.3180, 0.8463,-0.3548, 0.3814,-0.4221,41.401803,-73.372952, 2.3200, 14.0672, 155.792206, 100.0, 32.0,Walking,Med, 99.7581, 0.6844, 54.4885,-24.6296,-622.2802, 0.0000, 0.0000, 0.0000
26-Jun-2019 23:18:19.085,-0.3542,-0.3626,-0.9240, 0.0007,-0.0917,-0.0614,-0.1667, 0.3180, 0.8463,-0.3548, 0.3814,-0.4221,41.401803,-73.372952, 2.3200, 14.0672, 155.792206, 100.0, 32.0,Walking,Med, 99.7581, 0.6844, 55.8339,-23.2983,-621.9543, 0.0000, 0.0000, 0.0000
26-Jun-2019 23:18:19.095,-0.3290,-0.3346,-0.8689,-0.0319, 0.0069,-0.0525,-0.2858, 0.4234, 0.8078,-0.3541, 0.3786,-0.4186,41.401803,-73.372952, 2.3200, 14.0672, 155.792206, 100.0, 32.0,Walking,Med, 99.7581, 0.6844, 55.8339,-23.2983,-621.9543, 0.0000, 0.0000, 0.0000
26-Jun-2019 23:18:19.104,-0.3168,-0.3333,-0.9236,-0.0109, 0.0267, 0.0076,-0.3582, 0.6747, 0.7159,-0.3481, 0.3697,-0.4097,41.401803,-73.372952, 2.3200, 14.0672, 155.792206, 100.0, 32.0,Walking,Med, 99.7581, 0.6844, 55.8339,-23.2983,-621.9543, 0.0000, 0.0000, 0.0000
26-Jun-2019 23:18:19.116,-0.3367,-0.3217,-0.9008,-0.0025, 0.0221,-0.0434,-0.3945, 0.7776, 0.7093,-0.3429, 0.3634,-0.4038,41.401803,-73.372952, 2.3200, 16.1267, 155.792206, 100.0, 32.0,Walking,Med, 99.7581, 0.6844, 55.8339,-23.2983,-621.9543, 0.0000, 0.0000, 0.0000
26-Jun-2019 23:18:19.127,-0.3309,-0.2933,-0.9122,-0.0260, 0.0248,-0.0156,-0.3148, 0.6280, 0.9508,-0.3375, 0.3538,-0.3920,41.401803,-73.372952, 2.3200, 16.1267, 155.792206, 100.0, 32.0,Walking,Med, 99.7581, 0.6844, 55.3294,-22.7991,-621.7914, 0.0000, 0.0000, 0.0000
26-Jun-2019 23:18:19.134,-0.3188,-0.2654,-0.9430,-0.0209, 0.0503,-0.0257,-0.3148, 0.6280, 0.9508,-0.3364, 0.3507,-0.3877,41.401803,-73.372952, 2.3200, 16.1267, 155.792206, 100.0, 32.0,Walking,Med, 99.7581, 0.6844, 55.3294,-22.7991,-621.7914, 0.0000, 0.0000, 0.0000
26-Jun-2019 23:18:19.148,-0.3228,-0.2752,-0.9619,-0.0092, 0.0732,-0.0545,-0.2324, 0.4904, 0.9692,-0.3352, 0.3454,-0.3788,41.401803,-73.372952, 2.3200, 16.1267, 155.792206, 100.0, 32.0,Walking,Med, 99.7581, 0.6844, 55.3294,-22.7991,-621.7914, 0.0000, 0.0000, 0.0000
26-Jun-2019 23:18:19.159,-0.3616,-0.2747,-0.9675,-0.0121, 0.0572,-0.0714,-0.1073, 0.2271, 0.8774,-0.3358, 0.3388,-0.3662,41.401803,-73.372952, 2.3200, 16.1267, 155.792206, 100.0, 32.0,Walking,Med, 99.7581, 0.6844, 55.3294,-22.7991,-621.7914, 0.0000, 0.0000, 0.0000
26-Jun-2019 23:18:19.166,-0.3573,-0.2853,-0.9432,-0.0477, 0.0531,-0.0764,-0.0149, 0.1321, 0.9069,-0.3387, 0.3339,-0.3527,41.401803,-73.372952, 2.3200, 16.1267, 155.792206, 100.0, 32.0,Walking,Med, 99.7581, 0.6844, 55.4975,-20.3028,-621.6285, 0.0000, 0.0000, 0.0000
26-Jun-2019 23:18:19.174,-0.3283,-0.3298,-0.9192,-0.0477, 0.0531,-0.0764,-0.0149, 0.1321, 0.9069,-0.3387, 0.3339,-0.3527,41.401803,-73.372952, 2.3200, 16.1267, 155.792206, 100.0, 32.0,Walking,Med, 99.7581, 0.6844, 55.4975,-20.3028,-621.6285, 0.0000, 0.0000, 0.0000
26-Jun-2019 23:18:19.187,-0.3088,-0.3479,-0.9353,-0.0103,-0.0072,-0.0276,-0.0157, 0.1103, 1.0480,-0.3426, 0.3285,-0.3374,41.401803,-73.372952, 2.3200, 16.1267, 155.792206, 100.0, 32.0,Walking,Med, 99.7581, 0.6844, 55.4975,-20.3028,-621.6285, 0.0000, 0.0000, 0.0000
26-Jun-2019 23:18:19.196,-0.2961,-0.3100,-0.9670, 0.0135,-0.0309,-0.0433,-0.0702, 0.0703, 0.9969,-0.3467, 0.3225,-0.3231,41.401803,-73.372952, 2.3200, 16.1267, 155.792206, 100.0, 32.0,Walking,Med, 99.7581, 0.6844, 55.4975,-20.3028,-621.6285, 0.0000, 0.0000, 0.0000
26-Jun-2019 23:18:19.204,-0.2873,-0.2378,-0.9763, 0.0135,-0.0309,-0.0433,-0.0702, 0.0703, 0.9969,-0.3467, 0.3225,-0.3231,41.401803,-73.372952, 2.3200, 12.0038, 155.792206, 100.0, 32.0,Walking,Med, 99.7581, 0.6844, 55.1612,-19.9700,-621.6285, 0.0000, 0.0000, 0.0000
26-Jun-2019 23:18:19.217,-0.2965,-0.2502,-0.9372, 0.0395, 0.0742,-0.0842,-0.1023,-0.0400, 0.6180,-0.3512, 0.3173,-0.3131,41.401803,-73.372952, 2.3200, 12.0038, 155.792206, 100.0, 32.0,Walking,Med, 99.7581, 0.6844, 55.1612,-19.9700,-621.6285, 0.0000, 0.0000, 0.0000
26-Jun-2019 23:18:19.226,-0.3171,-0.2928,-0.8793, 0.0317, 0.0565,-0.0437,-0.1166, 0.0734, 0.5133,-0.3520, 0.3117,-0.3064,41.401803,-73.372952, 2.3200, 12.0038, 155.792206, 100.0, 32.0,Walking,Med, 99.7581, 0.6844, 55.1612,-19.9700,-621.6285, 0.0000, 0.0000, 0.0000
26-Jun-2019 23:18:19.233,-0.3235,-0.3088,-0.8662, 0.0317, 0.0565,-0.0437,-0.1166, 0.0734, 0.5133,-0.3520, 0.3117,-0.3064,41.401803,-73.372952, 2.3200, 9.4568, 155.792206, 100.0, 32.0,Walking,Med, 99.7581, 0.6844, 55.1612,-19.9700,-621.6285, 0.0000, 0.0000, 0.0000
26-Jun-2019 23:18:19.247,-0.3273,-0.3085,-0.8717, 0.0047,-0.0060, 0.0286,-0.0937, 0.2278, 0.4852,-0.3515, 0.3076,-0.3000,41.401803,-73.372952, 2.3200, 9.4568, 155.792206, 100.0, 32.0,Walking,Med, 99.7581, 0.6844, 57.1793,-19.6371,-621.9543, 0.0000, 0.0000, 0.0000
26-Jun-2019 23:18:19.255,-0.3429,-0.3021,-0.8840, 0.0011,-0.0091, 0.0241,-0.0653, 0.1716, 0.4844,-0.3514, 0.3041,-0.2933,41.401803,-73.372952, 2.3200, 9.4568, 155.792206, 100.0, 32.0,Walking,Med, 99.7581, 0.6844, 57.1793,-19.6371,-621.9543, 0.0000, 0.0000, 0.0000
26-Jun-2019 23:18:19.263,-0.3684,-0.2925,-0.8522, 0.0011,-0.0091, 0.0241,-0.0653, 0.1716, 0.4844,-0.3514, 0.3041,-0.2933,41.401803,-73.372952, 2.3200, 9.4568, 155.792206, 100.0, 32.0,Walking,Med, 99.7581, 0.6844, 57.1793,-19.6371,-621.9543, 0.0000, 0.0000, 0.0000
26-Jun-2019 23:18:19.278,-0.3696,-0.2930,-0.8012,-0.0380, 0.0043, 0.0437,-0.0464, 0.2693, 0.3677,-0.3534, 0.3014,-0.2868,41.401803,-73.372952, 2.3200, 9.4568, 155.792206, 100.0, 32.0,Walking,Med, 99.7581, 0.6844, 57.1793,-19.6371,-621.9543, 0.0000, 0.0000, 0.0000
26-Jun-2019 23:18:19.286,-0.3445,-0.2892,-0.8399,-0.0393, 0.0025, 0.0952,-0.0405, 0.3648, 0.2946,-0.3530, 0.3000,-0.2817,41.401803,-73.372952, 2.3200, 9.4568, 155.792206, 100.0, 32.0,Walking,Med, 99.7581, 0.6844, 57.3475,-19.8036,-622.1172, 0.0000, 0.0000, 0.0000
26-Jun-2019 23:18:19.292,-0.3109,-0.3057,-0.8674,-0.0393, 0.0025, 0.0952,-0.0405, 0.3648, 0.2946,-0.3530, 0.3000,-0.2817,41.401803,-73.372952, 2.3200, 7.7490, 155.792206, 100.0, 32.0,Walking,Med, 99.7581, 0.6844, 57.3475,-19.8036,-622.1172, 0.0000, 0.0000, 0.0000
26-Jun-2019 23:18:19.308,-0.3056,-0.2965,-0.8940, 0.0164,-0.0115, 0.0305,-0.0503, 0.3215, 0.3923,-0.3495, 0.2986,-0.2767,41.401803,-73.372952, 2.3200, 7.7490, 155.792206, 100.0, 32.0,Walking,Med, 99.7581, 0.6844, 57.3475,-19.8036,-622.1172, 0.0000, 0.0000, 0.0000
26-Jun-2019 23:18:19.318,-0.3021,-0.2823,-0.9048, 0.0201,-0.0032, 0.0048,-0.0503, 0.3215, 0.3923,-0.3477, 0.2977,-0.2752,41.401803,-73.372952, 2.3200, 7.7490, 155.792206, 100.0, 32.0,Walking,Med, 99.7581, 0.6844, 57.3475,-19.8036,-622.1172, 0.0000, 0.0000, 0.0000
26-Jun-2019 23:18:19.329,-0.2847,-0.2823,-0.8773, 0.0214, 0.0063,-0.0036,-0.1786, 0.2376, 0.4318,-0.3447, 0.2927,-0.2703,41.401803,-73.372952, 2.3200, 7.7490, 155.792206, 100.0, 32.0,Walking,Med, 99.7581, 0.6844, 58.0202,-18.4722,-623.7463, 0.0000, 0.0000, 0.0000
26-Jun-2019 23:18:19.338,-0.2602,-0.2560,-0.8498, 0.0377, 0.0029, 0.0253,-0.2284, 0.1768, 0.4963,-0.3431, 0.2892,-0.2667,41.401803,-73.372952, 2.3200, 7.7490, 155.792206, 100.0, 32.0,Walking,Med, 99.7581, 0.6844, 58.0202,-18.4722,-623.7463, 0.0000, 0.0000, 0.0000
26-Jun-2019 23:18:19.348,-0.2907,-0.2527,-0.8269, 0.0625, 0.0271, 0.0533,-0.2284, 0.1768, 0.4963,-0.3432, 0.2870,-0.2646,41.401803,-73.372952, 2.3200, 7.7490, 155.792206, 100.0, 32.0,Walking,Med, 99.7581, 0.6844, 58.0202,-18.4722,-623.7463, 0.0000, 0.0000, 0.0000
26-Jun-2019 23:18:19.360,-0.3320,-0.2727,-0.8262, 0.0327, 0.0235, 0.0781,-0.2929, 0.1744, 0.5819,-0.3432, 0.2798,-0.2578,41.401803,-73.372952, 2.3200, 7.7490, 155.792206, 100.0, 32.0,Walking,Med, 99.7581, 0.6844, 58.0202,-18.4722,-623.7463, 0.0000, 0.0000, 0.0000
26-Jun-2019 23:18:19.364,-0.3449,-0.2675,-0.8595,-0.0083,-0.0012, 0.0802,-0.3172, 0.1720, 0.5497,-0.3430, 0.2750,-0.2535,41.401803,-73.372952, 2.3200, 7.7490, 155.792206, 100.0, 32.0,Walking,Med, 99.7581, 0.6844, 57.8520,-17.9730,-624.5608, 0.0000, 0.0000, 0.0000
26-Jun-2019 23:18:19.372,-0.3289,-0.2563,-0.9237,-0.0083,-0.0012, 0.0802,-0.3172, 0.1720, 0.5497,-0.3430, 0.2750,-0.2535,41.401803,-73.372952, 2.3200, 7.7490, 155.792206, 100.0, 32.0,Walking,Med, 99.7581, 0.6844, 57.8520,-17.9730,-624.5608, 0.0000, 0.0000, 0.0000
26-Jun-2019 23:18:19.388,-0.3145,-0.2348,-0.9547,-0.0053, 0.0084,-0.0153,-0.3036, 0.1675, 0.4551,-0.3422, 0.2679,-0.2486,41.401803,-73.372952, 2.3200, 5.7085, 155.792206, 100.0, 32.0,Walking,Med, 99.7581, 0.6844, 57.8520,-17.9730,-624.5608, 0.0000, 0.0000, 0.0000
26-Jun-2019 23:18:19.401,-0.2671,-0.2282,-0.9037, 0.0062, 0.0239,-0.0435,-0.2601, 0.3330, 0.2371,-0.3385, 0.2617,-0.2463,41.401803,-73.372952, 2.3200, 5.7085, 155.792206, 100.0, 32.0,Walking,Med, 99.7581, 0.6844, 57.8520,-17.9730,-624.5608, 0.0000, 0.0000, 0.0000
26-Jun-2019 23:18:19.403,-0.2671,-0.2282,-0.9037, 0.0062, 0.0239,-0.0435,-0.2601, 0.3330, 0.2371,-0.3385, 0.2617,-0.2463,41.401803,-73.372952, 2.3200, 5.7085, 155.792206, 100.0, 32.0,Walking,Med, 99.7581, 0.6844, 57.8520,-17.9730,-624.5608, 0.0000, 0.0000, 0.0000
26-Jun-2019 23:18:19.411,-0.2733,-0.2127,-0.8774, 0.0486, 0.0258, 0.0105,-0.2345, 0.4803, 0.2880,-0.3325, 0.2569,-0.2434,41.401803,-73.372952, 2.3200, 5.7085, 155.792206, 100.0, 32.0,Walking,Med, 99.7581, 0.6844, 59.1974,-18.6386,-623.9092, 0.0000, 0.0000, 0.0000
26-Jun-2019 23:18:19.420,-0.3023,-0.2201,-0.8643, 0.0402, 0.0399, 0.0380,-0.1960, 0.6160, 0.3414,-0.3300, 0.2553,-0.2421,41.401803,-73.372952, 2.3200, 5.7085, 155.792206, 100.0, 32.0,Walking,Med, 99.7581, 0.6844, 59.1974,-18.6386,-623.9092, 0.0000, 0.0000, 0.0000
26-Jun-2019 23:18:19.430,-0.2464,-0.2195,-0.8891, 0.0062, 0.0295, 0.0536,-0.1993, 0.6970, 0.3655,-0.3242, 0.2523,-0.2393,41.401803,-73.372952, 2.3200, 5.7085, 155.792206, 100.0, 32.0,Walking,Med, 99.7581, 0.6844, 59.1974,-18.6386,-623.9092, 0.0000, 0.0000, 0.0000
26-Jun-2019 23:18:19.440,-0.1698,-0.2267,-0.9101, 0.0593, 0.0284, 0.0302,-0.1993, 0.6970, 0.3655,-0.3210, 0.2505,-0.2379,41.401803,-73.372952, 2.3200, 6.7656, 155.792206, 100.0, 32.0,Walking,Med, 99.7581, 0.6844, 59.5337,-17.3073,-623.2576, 0.0000, 0.0000, 0.0000
26-Jun-2019 23:18:19.451,-0.1531,-0.2549,-0.9244, 0.1288, 0.0145, 0.0133,-0.4006, 0.6070, 0.3712,-0.3128, 0.2436,-0.2338,41.401803,-73.372952, 2.3200, 6.7656, 155.792206, 100.0, 32.0,Walking,Med, 99.7581, 0.6844, 59.5337,-17.3073,-623.2576, 0.0000, 0.0000, 0.0000
26-Jun-2019 23:18:19.459,-0.2134,-0.2599,-0.9681, 0.1409,-0.0187, 0.0018,-0.4408, 0.6288, 0.2978,-0.3074, 0.2384,-0.2322,41.401803,-73.372952, 2.3200, 6.7656, 155.792206, 100.0, 32.0,Walking,Med, 99.7581, 0.6844, 59.5337,-17.3073,-623.2576, 0.0000, 0.0000, 0.0000
26-Jun-2019 23:18:19.468,-0.2872,-0.2346,-1.0132, 0.0780,-0.0262,-0.0405,-0.4408, 0.6288, 0.2978,-0.3044, 0.2359,-0.2316,41.401803,-73.372952, 2.3200, 6.7656, 155.792206, 100.0, 32.0,Walking,Med, 99.7581, 0.6844, 59.5337,-17.3073,-623.2576, 0.0000, 0.0000, 0.0000
26-Jun-2019 23:18:19.481,-0.3207,-0.1829,-1.0257,-0.0039,-0.0086,-0.0812,-0.4532, 0.6862, 0.3073,-0.2951, 0.2280,-0.2295,41.401803,-73.372952, 2.3200, 9.0686, 155.792206, 100.0, 32.0,Walking,Med, 99.7581, 0.6844, 60.8791,-14.6447,-624.2350, 0.0000, 0.0000, 0.0000
26-Jun-2019 23:18:19.489,-0.3168,-0.1550,-1.0158,-0.0428, 0.0383,-0.0909,-0.3970, 0.6899, 0.3324,-0.2890, 0.2230,-0.2276,41.401803,-73.372952, 2.3200, 9.0686, 155.792206, 100.0, 32.0,Walking,Med, 99.7581, 0.6844, 60.8791,-14.6447,-624.2350, 0.0000, 0.0000, 0.0000
26-Jun-2019 23:18:19.499,-0.2510,-0.1717,-0.9866,-0.0415, 0.0640,-0.0798,-0.3970, 0.6899, 0.3324,-0.2861, 0.2208,-0.2265,41.401803,-73.372952, 2.3200, 9.0686, 155.792206, 100.0, 32.0,Walking,Med, 99.7581, 0.6844, 60.8791,-14.6447,-624.2350, 0.0000, 0.0000, 0.0000
26-Jun-2019 23:18:19.514,-0.2489,-0.2132,-0.9527, 0.0139, 0.0399,-0.0458,-0.2480, 0.4848, 0.0916,-0.2745, 0.2132,-0.2235,41.401803,-73.372952, 2.3200, 9.0686, 155.792206, 100.0, 32.0,Walking,Med, 99.7581, 0.6844, 60.8791,-14.6447,-624.2350, 0.0000, 0.0000, 0.0000
26-Jun-2019 23:18:19.521,-0.2160,-0.2584,-0.9409, 0.0139, 0.0399,-0.0458,-0.2480, 0.4848, 0.0916,-0.2745, 0.2132,-0.2235,41.401803,-73.372952, 2.3200, 9.0686, 155.792206, 100.0, 32.0,Walking,Med, 99.7581, 0.6844, 60.8791,-14.6447,-624.2350, 0.0000, 0.0000, 0.0000
26-Jun-2019 23:18:19.531,-0.1994,-0.2518,-0.9124, 0.0410,-0.0496, 0.0027,-0.3307, 0.4491, 0.1030,-0.2659, 0.2103,-0.2239,41.401803,-73.372952, 2.3200, 9.0686, 155.792206, 100.0, 32.0,Walking,Med, 99.7581, 0.6844, 63.4017,-14.1454,-625.7010, 0.0000, 0.0000, 0.0000
26-Jun-2019 23:18:19.541,-0.2356,-0.2431,-0.8740, 0.0559,-0.0452, 0.0321,-0.3874, 0.4254, 0.1711,-0.2640, 0.2082,-0.2236,41.401803,-73.372952, 2.3200, 9.0686, 155.792206, 100.0, 32.0,Walking,Med, 99.7581, 0.6844, 63.4017,-14.1454,-625.7010, 0.0000, 0.0000, 0.0000
26-Jun-2019 23:18:19.551,-0.2476,-0.2169,-0.8615, 0.0158,-0.0405, 0.0724,-0.3668, 0.5011, 0.1486,-0.2597, 0.2041,-0.2231,41.401803,-73.372952, 2.3200, 9.0686, 155.792206, 100.0, 32.0,Walking,Med, 99.7581, 0.6844, 63.4017,-14.1454,-625.7010, 0.0000, 0.0000, 0.0000
26-Jun-2019 23:18:19.560,-0.2473,-0.1874,-0.8660,-0.0042,-0.0197, 0.0881,-0.3538, 0.6148, 0.0848,-0.2509, 0.1985,-0.2233,41.401803,-73.372952, 2.3200, 9.0686, 155.792206, 100.0, 32.0,Walking,Med, 99.7581, 0.6844, 63.4017,-14.1454,-625.7010, 0.0000, 0.0000, 0.0000
26-Jun-2019 23:18:19.570,-0.2417,-0.1652,-0.9065,-0.0070, 0.0082, 0.0848,-0.3522, 0.7189, 0.0083,-0.2476, 0.1968,-0.2238,41.401803,-73.372952, 2.3200, 9.0686, 155.792206, 100.0, 32.0,Walking,Med, 99.7581, 0.6844, 65.4198,-14.1454,-626.0269, 0.0000, 0.0000, 0.0000
26-Jun-2019 23:18:19.580,-0.1937,-0.1559,-0.9166,-0.0082, 0.0268, 0.0467,-0.3788, 0.7430,-0.0405,-0.2403, 0.1932,-0.2251,41.401803,-73.372952, 2.3200, 9.0686, 155.792206, 100.0, 32.0,Walking,Med, 99.7581, 0.6844, 65.4198,-14.1454,-626.0269, 0.0000, 0.0000, 0.0000
26-Jun-2019 23:18:19.590,-0.1744,-0.1438,-0.9037, 0.0308, 0.0296, 0.0400,-0.4382, 0.6778, 0.0347,-0.2305, 0.1866,-0.2262,41.401803,-73.372952, 2.3200, 9.0686, 155.792206, 100.0, 32.0,Walking,Med, 99.7581, 0.6844, 65.4198,-14.1454,-626.0269, 0.0000, 0.0000, 0.0000
26-Jun-2019 23:18:19.600,-0.1930,-0.1307,-0.8737, 0.0477, 0.0391, 0.0540,-0.5035, 0.5552, 0.1204,-0.2279, 0.1839,-0.2263,41.401803,-73.372952, 2.3200, 7.9287, 155.792206, 100.0, 32.0,Walking,Med, 99.7581, 0.6844, 65.4198,-14.1454,-626.0269, 0.0000, 0.0000, 0.0000
26-Jun-2019 23:18:19.610,-0.2212,-0.1431,-0.8515, 0.0251, 0.0467, 0.0860,-0.5430, 0.4486, 0.1539,-0.2235, 0.1783,-0.2261,41.401803,-73.372952, 2.3200, 7.9287, 155.792206, 100.0, 32.0,Walking,Med, 99.7581, 0.6844, 65.7562,-12.8141,-626.3527, 0.0000, 0.0000, 0.0000
26-Jun-2019 23:18:19.620,-0.2470,-0.1426,-0.8545,-0.0079, 0.0253, 0.1108,-0.5787, 0.3930, 0.1694,-0.2182, 0.1692,-0.2257,41.401803,-73.372952, 2.3200, 7.9287, 155.792206, 100.0, 32.0,Walking,Med, 99.7581, 0.6844, 65.7562,-12.8141,-626.3527, 0.0000, 0.0000, 0.0000
26-Jun-2019 23:18:19.630,-0.2345,-0.1608,-0.8697,-0.0352, 0.0226, 0.1088,-0.6166, 0.3788, 0.1351,-0.2164, 0.1660,-0.2257,41.401803,-73.372952, 2.3200, 7.9287, 155.792206, 100.0, 32.0,Walking,Med, 99.7581, 0.6844, 65.7562,-12.8141,-626.3527, 0.0000, 0.0000, 0.0000
26-Jun-2019 23:18:19.639,-0.2079,-0.1636,-0.8548,-0.0256,-0.0019, 0.0952,-0.6280, 0.3743, 0.0988,-0.2131, 0.1596,-0.2261,41.401803,-73.372952, 2.3200, 7.9287, 155.792206, 100.0, 32.0,Walking,Med, 99.7581, 0.6844, 65.7562,-12.8141,-626.3527, 0.0000, 0.0000, 0.0000
26-Jun-2019 23:18:19.649,-0.2092,-0.1349,-0.8426,-0.0007,-0.0078, 0.1111,-0.6280, 0.3743, 0.0988,-0.2113, 0.1564,-0.2263,41.401803,-73.372952, 2.3200, 7.9287, 155.792206, 100.0, 32.0,Walking,Med, 99.7581, 0.6844, 67.6061,-12.3148,-625.8640, 0.0000, 0.0000, 0.0000
26-Jun-2019 23:18:19.662,-0.2227,-0.1240,-0.8443,-0.0078, 0.0111, 0.1259,-0.6424, 0.4999, 0.1273,-0.2050, 0.1466,-0.2267,41.401803,-73.372952, 2.3200, 6.5426, 155.792206, 100.0, 32.0,Walking,Med, 99.7581, 0.6844, 67.6061,-12.3148,-625.8640, 0.0000, 0.0000, 0.0000
26-Jun-2019 23:18:19.669,-0.2123,-0.1278,-0.8764,-0.0265, 0.0155, 0.1263,-0.6353, 0.6128, 0.1455,-0.1995, 0.1399,-0.2267,41.401803,-73.372952, 2.3200, 6.5426, 155.792206, 100.0, 32.0,Walking,Med, 99.7581, 0.6844, 67.6061,-12.3148,-625.8640, 0.0000, 0.0000, 0.0000
26-Jun-2019 23:18:19.679,-0.1900,-0.1042,-0.8937,-0.0189, 0.0085, 0.0952,-0.6353, 0.6128, 0.1455,-0.1965, 0.1367,-0.2265,41.401803,-73.372952, 2.3200, 6.5426, 155.792206, 100.0, 32.0,Walking,Med, 99.7581, 0.6844, 67.6061,-12.3148,-625.8640, 0.0000, 0.0000, 0.0000
26-Jun-2019 23:18:19.690,-0.1694,-0.0996,-0.8915,-0.0053, 0.0231, 0.0808,-0.5190, 0.6512, 0.1952,-0.1873, 0.1277,-0.2254,41.401803,-73.372952, 2.3200, 4.9821, 155.792206, 100.0, 32.0,Walking,Med, 99.7581, 0.6844, 69.4560,-9.1529,-625.7010, 0.0000, 0.0000, 0.0000
26-Jun-2019 23:18:19.699,-0.1677,-0.1138,-0.9133, 0.0098, 0.0232, 0.0847,-0.3981, 0.6138, 0.1739,-0.1815, 0.1231,-0.2245,41.401803,-73.372952, 2.3200, 4.9821, 155.792206, 100.0, 32.0,Walking,Med, 99.7581, 0.6844, 69.4560,-9.1529,-625.7010, 0.0000, 0.0000, 0.0000
26-Jun-2019 23:18:19.708,-0.2035,-0.1139,-0.9651, 0.0089, 0.0071, 0.0636,-0.3981, 0.6138, 0.1739,-0.1789, 0.1212,-0.2241,41.401803,-73.372952, 2.3200, 4.9821, 155.792206, 100.0, 32.0,Walking,Med, 99.7581, 0.6844, 69.4560,-9.1529,-625.7010, 0.0000, 0.0000, 0.0000
26-Jun-2019 23:18:19.719,-0.2165,-0.1065,-0.9727,-0.0305, 0.0040, 0.0128,-0.2952, 0.4804, 0.1466,-0.1751, 0.1182,-0.2232,41.401803,-73.372952, 2.3200, 4.9821, 155.792206, 100.0, 32.0,Walking,Med, 99.7570, 0.7795, 69.4560,-9.1529,-625.7010, 0.0000, 0.0000, 0.0000
26-Jun-2019 23:18:19.729,-0.1757,-0.0956,-0.9728,-0.0468, 0.0092, 0.0060,-0.0832, 0.2497, 0.0573,-0.1717, 0.1160,-0.2226,41.401803,-73.372952, 2.3200, 7.0725, 155.792206, 100.0, 32.0,Walking,Med, 99.7570, 0.7795, 70.2969,-10.3178,-626.1898, 0.0000, 0.0000, 0.0000
26-Jun-2019 23:18:19.738,-0.1768,-0.0975,-0.9757,-0.0070, 0.0198, 0.0061,-0.0832, 0.2497, 0.0573,-0.1706, 0.1156,-0.2224,41.401803,-73.372952, 2.3200, 7.0725, 155.792206, 100.0, 32.0,Walking,Med, 99.7570, 0.7795, 70.2969,-10.3178,-626.1898, 0.0000, 0.0000, 0.0000
26-Jun-2019 23:18:19.750,-0.1799,-0.0832,-0.9806,-0.0116, 0.0165, 0.0039, 0.0272, 0.3571, 0.0844,-0.1671, 0.1143,-0.2212,41.401803,-73.372952, 2.3200, 4.3757, 155.792206, 100.0, 32.0,Walking,Med, 99.7570, 0.7795, 70.2969,-10.3178,-626.1898, 0.0000, 0.0000, 0.0000
26-Jun-2019 23:18:19.758,-0.1638,-0.0934,-0.9695,-0.0187, 0.0312,-0.0003, 0.0599, 0.4935, 0.0631,-0.1630, 0.1146,-0.2205,41.401803,-73.372952, 2.3200, 4.3757, 155.792206, 100.0, 32.0,Walking,Med, 99.7570, 0.7795, 70.2969,-10.3178,-626.1898, 0.0000, 0.0000, 0.0000
26-Jun-2019 23:18:19.768,-0.1500,-0.1017,-0.9380,-0.0052, 0.0212, 0.0112, 0.0599, 0.4935, 0.0631,-0.1604, 0.1149,-0.2202,41.401803,-73.372952, 2.3200, 4.3757, 155.792206, 100.0, 32.0,Walking,Med, 99.7570, 0.7795, 71.1377,-10.1514,-625.0494, 0.0000, 0.0000, 0.0000
26-Jun-2019 23:18:19.780,-0.1213,-0.0984,-0.9054,-0.0008, 0.0140, 0.0441, 0.1096, 0.7238, 0.0466,-0.1508, 0.1160,-0.2193,41.401803,-73.372952, 2.3200, 4.3757, 155.792206, 100.0, 32.0,Walking,Med, 99.7570, 0.7795, 71.1377,-10.1514,-625.0494, 0.0000, 0.0000, 0.0000
26-Jun-2019 23:18:19.787,-0.0772,-0.0835,-0.8918, 0.0207, 0.0186, 0.0775, 0.1664, 0.7764, 0.0634,-0.1435, 0.1172,-0.2186,41.401803,-73.372952, 2.3200, 4.3757, 155.792206, 100.0, 32.0,Walking,Med, 99.7570, 0.7795, 71.1377,-10.1514,-625.0494, 0.0000, 0.0000, 0.0000
26-Jun-2019 23:18:19.797,-0.0612,-0.0798,-0.8938, 0.0611, 0.0343, 0.0915, 0.1664, 0.7764, 0.0634,-0.1398, 0.1181,-0.2180,41.401803,-73.372952, 2.3200, 4.3757, 155.792206, 100.0, 32.0,Walking,Med, 99.7570, 0.7795, 71.1377,-10.1514,-625.0494, 0.0000, 0.0000, 0.0000
26-Jun-2019 23:18:19.812,-0.0900,-0.0834,-0.9123, 0.0698, 0.0400, 0.0903, 0.2232, 0.7984, 0.1223,-0.1323, 0.1201,-0.2164,41.401803,-73.372952, 2.3200, 2.5379, 155.792206, 100.0, 32.0,Walking,Med, 99.7570, 0.7795, 71.6423,-11.6492,-628.1446, 0.0000, 0.0000, 0.0000
26-Jun-2019 23:18:19.824,-0.1180,-0.0868,-0.9706, 0.0296, 0.0401, 0.0729, 0.2903, 0.8396, 0.1895,-0.1208, 0.1238,-0.2132,41.401803,-73.372952, 2.3200, 2.5379, 155.792206, 100.0, 32.0,Walking,Med, 99.7570, 0.7795, 71.6423,-11.6492,-628.1446, 0.0000, 0.0000, 0.0000
26-Jun-2019 23:18:19.828,-0.1142,-0.1033,-1.0227,-0.0081, 0.0404, 0.0152, 0.2861, 0.7248, 0.2214,-0.1111, 0.1276,-0.2095,41.401803,-73.372952, 2.3200, 2.5379, 155.792206, 100.0, 32.0,Walking,Med, 99.7570, 0.7795, 71.6423,-11.6492,-628.1446, 0.0000, 0.0000, 0.0000
26-Jun-2019 23:18:19.837,-0.1143,-0.1185,-1.0094,-0.0081, 0.0404, 0.0152, 0.2861, 0.7248, 0.2214,-0.1111, 0.1276,-0.2095,41.401803,-73.372952, 2.3200, 3.9816, 155.792206, 100.0, 32.0,Walking,Med, 99.7570, 0.7795, 71.6423,-11.6492,-628.1446, 0.0000, 0.0000, 0.0000
26-Jun-2019 23:18:19.853,-0.0853,-0.1167,-0.9827,-0.0087, 0.0122,-0.0237, 0.2692, 0.2647, 0.1859,-0.1067, 0.1311,-0.2058,41.401803,-73.372952, 2.3200, 3.9816, 155.792206, 100.0, 32.0,Walking,Med, 99.7570, 0.7795, 74.6694,-10.9835,-629.4478, 0.0000, 0.0000, 0.0000
26-Jun-2019 23:18:19.856,-0.0529,-0.1052,-0.9572, 0.0168, 0.0171, 0.0030, 0.2798, 0.2114, 0.1359,-0.1033, 0.1342,-0.2035,41.401803,-73.372952, 2.3200, 3.9816, 155.792206, 100.0, 32.0,Walking,Med, 99.7570, 0.7795, 74.6694,-10.9835,-629.4478, 0.0000, 0.0000, 0.0000
26-Jun-2019 23:18:19.867,-0.0547,-0.1177,-0.9404, 0.0168, 0.0171, 0.0030, 0.2798, 0.2114, 0.1359,-0.1033, 0.1342,-0.2035,41.401803,-73.372952, 2.3200, 2.4173, 155.792206, 100.0, 32.0,Walking,Med, 99.7570, 0.7795, 74.6694,-10.9835,-629.4478, 0.0000, 0.0000, 0.0000
26-Jun-2019 23:18:19.883,-0.0860,-0.1184,-0.9242, 0.0452, 0.0200, 0.0450, 0.2844, 0.2017, 0.1105,-0.1011, 0.1381,-0.2015,41.401803,-73.372952, 2.3200, 2.4173, 155.792206, 100.0, 32.0,Walking,Med, 99.7570, 0.7795, 74.6694,-10.9835,-629.4478, 0.0000, 0.0000, 0.0000
26-Jun-2019 23:18:19.887,-0.1154,-0.1151,-0.9216, 0.0108, 0.0236, 0.0610, 0.3104, 0.2668, 0.0979,-0.0979, 0.1424,-0.1995,41.401803,-73.372952, 2.3200, 2.4173, 155.792206, 100.0, 32.0,Walking,Med, 99.7570, 0.7795, 74.6694,-12.3148,-628.4704, 0.0000, 0.0000, 0.0000
26-Jun-2019 23:18:19.896,-0.1346,-0.1315,-0.9377, 0.0108, 0.0236, 0.0610, 0.3104, 0.2668, 0.0979,-0.0979, 0.1424,-0.1995,41.401803,-73.372952, 2.3200, 359.5943, 155.792206, 100.0, 32.0,Walking,Med, 99.7570, 0.7795, 74.6694,-12.3148,-628.4704, 0.0000, 0.0000, 0.0000
26-Jun-2019 23:18:19.912,-0.0876,-0.1458,-0.9559,-0.0414, 0.0143, 0.0473, 0.2643, 0.2735, 0.2625,-0.0944, 0.1463,-0.1961,41.401803,-73.372952, 2.3200, 359.5943, 155.792206, 100.0, 32.0,Walking,Med, 99.7570, 0.7795, 74.6694,-12.3148,-628.4704, 0.0000, 0.0000, 0.0000
26-Jun-2019 23:18:19.918,-0.0383,-0.1354,-0.9537, 0.0047, 0.0021, 0.0288, 0.1704, 0.1410, 0.3438,-0.0934, 0.1484,-0.1910,41.401803,-73.372952, 2.3200, 359.5943, 155.792206, 100.0, 32.0,Walking,Med, 99.7570, 0.7795, 74.6694,-12.3148,-628.4704, 0.0000, 0.0000, 0.0000
26-Jun-2019 23:18:19.926,-0.0301,-0.1207,-0.9281, 0.0047, 0.0021, 0.0288, 0.1704, 0.1410, 0.3438,-0.0934, 0.1484,-0.1910,41.401803,-73.372952, 2.3200, 358.5012, 155.792206, 100.0, 32.0,Walking,Med, 99.7570, 0.7795, 76.0148,-12.9805,-628.1446, 0.0000, 0.0000, 0.0000
26-Jun-2019 23:18:19.943,-0.0636,-0.1243,-0.8998, 0.0621, 0.0265, 0.0567,-0.0571, 0.0919, 0.2248,-0.0934, 0.1478,-0.1871,41.401803,-73.372952, 2.3200, 358.5012, 155.792206, 100.0, 32.0,Walking,Med, 99.7570, 0.7795, 76.0148,-12.9805,-628.1446, 0.0000, 0.0000, 0.0000
26-Jun-2019 23:18:19.947,-0.0714,-0.1239,-0.9232, 0.0283, 0.0212, 0.0853,-0.0963, 0.0862, 0.2031,-0.0930, 0.1460,-0.1843,41.401803,-73.372952, 2.3200, 358.5012, 155.792206, 100.0, 32.0,Walking,Med, 99.7570, 0.7795, 76.0148,-12.9805,-628.1446, 0.0000, 0.0000, 0.0000
26-Jun-2019 23:18:19.955,-0.0810,-0.1166,-0.9531, 0.0283, 0.0212, 0.0853,-0.0963, 0.0862, 0.2031,-0.0930, 0.1460,-0.1843,41.401803,-73.372952, 2.3200, 357.1031, 155.792206, 100.0, 32.0,Walking,Med, 99.7570, 0.7795, 76.0148,-12.9805,-628.1446, 0.0000, 0.0000, 0.0000
26-Jun-2019 23:18:19.973,-0.0875,-0.1137,-0.9836, 0.0108, 0.0275, 0.0322,-0.0502, 0.0468, 0.0871,-0.0929, 0.1446,-0.1824,41.401803,-73.372952, 2.3200, 357.1031, 155.792206, 100.0, 32.0,Walking,Med, 99.7570, 0.7795, 76.3512,-12.6477,-628.7962, 0.0000, 0.0000, 0.0000
26-Jun-2019 23:18:19.977,-0.1075,-0.1056,-1.0051, 0.0042, 0.0292, 0.0019, 0.0308, 0.0151,-0.0170,-0.0928, 0.1433,-0.1827,41.401803,-73.372952, 2.3200, 357.1031, 155.792206, 100.0, 32.0,Walking,Med, 99.7570, 0.7795, 76.3512,-12.6477,-628.7962, 0.0000, 0.0000, 0.0000
26-Jun-2019 23:18:19.985,-0.1271,-0.1086,-1.0196, 0.0042, 0.0292, 0.0019, 0.0308, 0.0151,-0.0170,-0.0928, 0.1433,-0.1827,41.401803,-73.372952, 2.3200, 357.1031, 155.792206, 100.0, 32.0,Walking,Med, 99.7570, 0.7795, 76.3512,-12.6477,-628.7962, 0.0000, 0.0000, 0.0000
26-Jun-2019 23:18:20.003,-0.1240,-0.1181,-1.0232,-0.0354, 0.0370,-0.0345, 0.2244,-0.0103,-0.0878,-0.0928, 0.1461,-0.1841,41.401803,-73.372952, 2.3200, 357.1031, 155.792206, 100.0, 32.0,Walking,Med, 99.7570, 0.7795, 76.3512,-12.6477,-628.7962, 0.0000, 0.0000, 0.0000
26-Jun-2019 23:18:20.008,-0.1250,-0.1371,-0.9992,-0.0302, 0.0314,-0.0389, 0.2740,-0.1086,-0.0215,-0.0949, 0.1500,-0.1842,41.401803,-73.372952, 2.3200, 357.1031, 155.792206, 100.0, 32.0,Walking,Med, 99.7570, 0.7795, 75.5103,-13.4797,-628.6333, 0.0000, 0.0000, 0.0000
26-Jun-2019 23:18:20.016,-0.1268,-0.1579,-0.9537,-0.0302, 0.0314,-0.0389, 0.2740,-0.1086,-0.0215,-0.0949, 0.1500,-0.1842,41.401803,-73.372952, 2.3200, 355.7481, 155.792206, 100.0, 32.0,Walking,Med, 99.7570, 0.7795, 75.5103,-13.4797,-628.6333, 0.0000, 0.0000, 0.0000
26-Jun-2019 23:18:20.026,-0.1080,-0.1670,-0.9103,-0.0281,-0.0038, 0.0295, 0.2647,-0.1723, 0.0404,-0.1001, 0.1547,-0.1831,41.401803,-73.372952, 2.3200, 355.7481, 155.792206, 100.0, 32.0,Walking,Med, 99.7570, 0.7795, 75.5103,-13.4797,-628.6333, 0.0000, 0.0000, 0.0000
26-Jun-2019 23:18:20.036,-0.0581,-0.1635,-0.8844,-0.0082,-0.0118, 0.0725, 0.2647,-0.1723, 0.0404,-0.1012, 0.1559,-0.1827,41.401803,-73.372952, 2.3200, 355.7481, 155.792206, 100.0, 32.0,Walking,Med, 99.7570, 0.7795, 75.5103,-13.4797,-628.6333, 0.0000, 0.0000, 0.0000
26-Jun-2019 23:18:20.045,-0.0479,-0.1391,-0.8837, 0.0437,-0.0058, 0.0978, 0.2571,-0.1702, 0.0541,-0.1033, 0.1583,-0.1820,41.401803,-73.372952, 2.3200, 355.7481, 155.792206, 100.0, 32.0,Walking,Med, 99.7570, 0.7795, 75.5103,-13.4797,-628.6333, 0.0000, 0.0000, 0.0000
26-Jun-2019 23:18:20.064,-0.0882,-0.1366,-0.8894, 0.0559, 0.0219, 0.0978, 0.2077,-0.0825,-0.0217,-0.1053, 0.1616,-0.1816,41.401803,-73.372952, 2.3200, 353.2271, 155.792206, 100.0, 32.0,Walking,Med, 99.7570, 0.7795, 77.3602,-14.3118,-628.4704, 0.0000, 0.0000, 0.0000
26-Jun-2019 23:18:20.070,-0.0958,-0.1626,-0.8949, 0.0169, 0.0262, 0.0917, 0.1375,-0.0651,-0.0548,-0.1068, 0.1636,-0.1822,41.401803,-73.372952, 2.3200, 353.2271, 155.792206, 100.0, 32.0,Walking,Med, 99.7570, 0.7795, 77.3602,-14.3118,-628.4704, 0.0000, 0.0000, 0.0000
26-Jun-2019 23:18:20.074,-0.0879,-0.1685,-0.9042, 0.0169, 0.0262, 0.0917, 0.1375,-0.0651,-0.0548,-0.1068, 0.1636,-0.1822,41.401803,-73.372952, 2.3200, 353.2271, 155.792206, 100.0, 32.0,Walking,Med, 99.7570, 0.7795, 77.3602,-14.3118,-628.4704, 0.0000, 0.0000, 0.0000
26-Jun-2019 23:18:20.083,-0.0876,-0.1681,-0.8880, 0.0178,-0.0056, 0.0768, 0.0181,-0.0798,-0.0186,-0.1073, 0.1636,-0.1823,41.401803,-73.372952, 2.3200, 353.2271, 155.792206, 100.0, 32.0,Walking,Med, 99.7570, 0.7795, 77.3602,-14.3118,-628.4704, 0.0000, 0.0000, 0.0000
26-Jun-2019 23:18:20.096,-0.0831,-0.1485,-0.8833, 0.0203,-0.0073, 0.0931,-0.1428,-0.1053, 0.0333,-0.1095, 0.1614,-0.1822,41.401803,-73.372952, 2.3200, 353.2271, 155.792206, 100.0, 32.0,Walking,Med, 99.7570, 0.7795, 74.3331,-14.3118,-628.1446, 0.0000, 0.0000, 0.0000
26-Jun-2019 23:18:20.105,-0.0876,-0.1230,-0.8940, 0.0265, 0.0096, 0.0981,-0.2416,-0.1359, 0.0391,-0.1112, 0.1588,-0.1823,41.401803,-73.372952, 2.3200, 353.2271, 155.792206, 100.0, 32.0,Walking,Med, 99.7570, 0.7795, 74.3331,-14.3118,-628.1446, 0.0000, 0.0000, 0.0000
26-Jun-2019 23:18:20.123,-0.1194,-0.1379,-0.9156, 0.0233, 0.0309, 0.0879,-0.2949,-0.0325,-0.0999,-0.1125, 0.1546,-0.1840,41.401803,-73.372952, 2.3200, 353.2271, 155.792206, 100.0, 32.0,Walking,Med, 99.7570, 0.7795, 74.3331,-14.3118,-628.1446, 0.0000, 0.0000, 0.0000
26-Jun-2019 23:18:20.128,-0.1490,-0.1377,-0.9490,-0.0075, 0.0120, 0.0667,-0.2809,-0.0494,-0.0919,-0.1135, 0.1505,-0.1860,41.401803,-73.372952, 2.3200, 353.2271, 155.792206, 100.0, 32.0,Walking,Med, 99.7570, 0.7795, 76.1830,-13.8126,-628.6333, 0.0000, 0.0000, 0.0000
26-Jun-2019 23:18:20.133,-0.1442,-0.1238,-0.9629,-0.0075, 0.0120, 0.0667,-0.2809,-0.0494,-0.0919,-0.1135, 0.1505,-0.1860,41.401803,-73.372952, 2.3200, 353.2271, 155.792206, 100.0, 32.0,Walking,Med, 99.7570, 0.7795, 76.1830,-13.8126,-628.6333, 0.0000, 0.0000, 0.0000
26-Jun-2019 23:18:20.143,-0.1278,-0.1327,-0.9818,-0.0316, 0.0250, 0.0195,-0.2210,-0.0914,-0.0627,-0.1141, 0.1494,-0.1865,41.401803,-73.372952, 2.3200, 353.2271, 155.792206, 100.0, 32.0,Walking,Med, 99.7570, 0.7795, 76.1830,-13.8126,-628.6333, 0.0000, 0.0000, 0.0000
26-Jun-2019 23:18:20.152,-0.1259,-0.1495,-0.9811,-0.0138, 0.0145, 0.0007,-0.1347,-0.1310,-0.0152,-0.1155, 0.1478,-0.1870,41.401803,-73.372952, 2.3200, 353.2271, 155.792206, 100.0, 32.0,Walking,Med, 99.7570, 0.7795, 76.1830,-13.8126,-628.6333, 0.0000, 0.0000, 0.0000
26-Jun-2019 23:18:20.165,-0.0984,-0.1420,-0.9647,-0.0076,-0.0036, 0.0011,-0.0853,-0.2102, 0.0434,-0.1199, 0.1464,-0.1865,41.401803,-73.372952, 2.3200, 353.2271, 155.792206, 100.0, 32.0,Walking,Med, 99.7570, 0.7795, 76.1830,-13.8126,-628.6333, 0.0000, 0.0000, 0.0000
26-Jun-2019 23:18:20.183,-0.0739,-0.1204,-0.9043, 0.0246, 0.0025, 0.0172,-0.0858,-0.2719, 0.0648,-0.1246, 0.1449,-0.1857,41.401803,-73.372952, 2.3200, 351.2825, 155.792206, 100.0, 32.0,Walking,Med, 99.7570, 0.7795, 74.3331,-12.9805,-628.1446, 0.0000, 0.0000, 0.0000
26-Jun-2019 23:18:20.185,-0.0739,-0.1204,-0.9043, 0.0246, 0.0025, 0.0172,-0.0858,-0.2719, 0.0648,-0.1246, 0.1449,-0.1857,41.401803,-73.372952, 2.3200, 351.2825, 155.792206, 100.0, 32.0,Walking,Med, 99.7570, 0.7795, 74.3331,-12.9805,-628.1446, 0.0000, 0.0000, 0.0000
26-Jun-2019 23:18:20.192,-0.0622,-0.1107,-0.8847, 0.0529, 0.0226, 0.0773,-0.0829,-0.2241, 0.0298,-0.1285, 0.1435,-0.1854,41.401803,-73.372952, 2.3200, 351.2825, 155.792206, 100.0, 32.0,Walking,Med, 99.7570, 0.7795, 74.3331,-12.9805,-628.1446, 0.0000, 0.0000, 0.0000
26-Jun-2019 23:18:20.202,-0.0436,-0.1038,-0.8856, 0.0655, 0.0319, 0.0968,-0.0785,-0.1325, 0.0218,-0.1294, 0.1431,-0.1854,41.401803,-73.372952, 2.3200, 351.2825, 155.792206, 100.0, 32.0,Walking,Med, 99.7570, 0.7795, 74.3331,-12.9805,-628.1446, 0.0000, 0.0000, 0.0000
26-Jun-2019 23:18:20.212,-0.0546,-0.1172,-0.9023, 0.0848, 0.0380, 0.0960,-0.0704,-0.0016, 0.0120,-0.1301, 0.1422,-0.1854,41.401803,-73.372952, 2.3200, 351.2825, 155.792206, 100.0, 32.0,Walking,Med, 99.7570, 0.7795, 74.1649,-13.8126,-628.3075, 0.0000, 0.0000, 0.0000
26-Jun-2019 23:18:20.222,-0.0796,-0.1415,-0.9454, 0.0722, 0.0238, 0.0796,-0.0483, 0.1400,-0.0245,-0.1284, 0.1415,-0.1860,41.401803,-73.372952, 2.3200, 351.2825, 155.792206, 100.0, 32.0,Walking,Med, 99.7570, 0.7795, 74.1649,-13.8126,-628.3075, 0.0000, 0.0000, 0.0000
26-Jun-2019 23:18:20.231,-0.1152,-0.1593,-1.0013, 0.0435,-0.0003, 0.0369,-0.0280, 0.2677,-0.0841,-0.1247, 0.1417,-0.1868,41.401803,-73.372952, 2.3200, 351.2825, 155.792206, 100.0, 32.0,Walking,Med, 99.7570, 0.7795, 74.1649,-13.8126,-628.3075, 0.0000, 0.0000, 0.0000
26-Jun-2019 23:18:20.241,-0.1507,-0.1438,-1.0163, 0.0053,-0.0184,-0.0186,-0.0420, 0.2814,-0.0835,-0.1220, 0.1414,-0.1878,41.401803,-73.372952, 2.3200, 351.2825, 155.792206, 100.0, 32.0,Walking,Med, 99.7570, 0.7795, 74.1649,-13.8126,-628.3075, 0.0000, 0.0000, 0.0000
26-Jun-2019 23:18:20.254,-0.1553,-0.1227,-1.0159,-0.0330,-0.0035,-0.0333,-0.0444, 0.2143,-0.0802,-0.1191, 0.1408,-0.1892,41.401803,-73.372952, 2.3200, 351.2825, 155.792206, 100.0, 32.0,Walking,Med, 99.7570, 0.7795, 75.1739,-12.4812,-628.3075, 0.0000, 0.0000, 0.0000
26-Jun-2019 23:18:20.266,-0.1528,-0.1194,-0.9910,-0.0399, 0.0175,-0.0325, 0.0133, 0.1861,-0.0608,-0.1168, 0.1407,-0.1904,41.401803,-73.372952, 2.3200, 354.2207, 155.792206, 100.0, 32.0,Walking,Med, 99.7570, 0.7795, 75.1739,-12.4812,-628.3075, 0.0000, 0.0000, 0.0000
26-Jun-2019 23:18:20.275,-0.1320,-0.1205,-0.9804,-0.0402, 0.0217,-0.0075, 0.0604, 0.2218,-0.0183,-0.1140, 0.1415,-0.1907,41.401803,-73.372952, 2.3200, 354.2207, 155.792206, 100.0, 32.0,Walking,Med, 99.7570, 0.7795, 75.1739,-12.4812,-628.3075, 0.0000, 0.0000, 0.0000
26-Jun-2019 23:18:20.281,-0.1038,-0.1103,-0.9844,-0.0402, 0.0217,-0.0075, 0.0604, 0.2218,-0.0183,-0.1140, 0.1415,-0.1907,41.401803,-73.372952, 2.3200, 354.2207, 155.792206, 100.0, 32.0,Walking,Med, 99.7570, 0.7795, 75.1739,-12.4812,-628.3075, 0.0000, 0.0000, 0.0000
26-Jun-2019 23:18:20.290,-0.0748,-0.1082,-0.9721, 0.0073, 0.0295,-0.0004, 0.0941, 0.2371, 0.0085,-0.1125, 0.1402,-0.1907,41.401803,-73.372952, 2.3200, 355.4545, 155.792206, 100.0, 32.0,Walking,Med, 99.7570, 0.7795, 75.1739,-12.8141,-628.9591, 0.0000, 0.0000, 0.0000
26-Jun-2019 23:18:20.303,-0.0863,-0.1097,-0.9650, 0.0344, 0.0326, 0.0119, 0.1184, 0.2405, 0.0321,-0.1105, 0.1412,-0.1904,41.401803,-73.372952, 2.3200, 355.4545, 155.792206, 100.0, 32.0,Walking,Med, 99.7570, 0.7795, 75.1739,-12.8141,-628.9591, 0.0000, 0.0000, 0.0000
26-Jun-2019 23:18:20.311,-0.1174,-0.1209,-0.9822, 0.0194, 0.0329, 0.0191, 0.1403, 0.2759, 0.0413,-0.1070, 0.1431,-0.1896,41.401803,-73.372952, 2.3200, 355.4545, 155.792206, 100.0, 32.0,Walking,Med, 99.7570, 0.7795, 75.1739,-12.8141,-628.9591, 0.0000, 0.0000, 0.0000
26-Jun-2019 23:18:20.320,-0.1273,-0.1435,-1.0086,-0.0129, 0.0224, 0.0019, 0.1570, 0.3026, 0.0453,-0.1057, 0.1438,-0.1893,41.401803,-73.372952, 2.3200, 355.4545, 155.792206, 100.0, 32.0,Walking,Med, 99.7570, 0.7795, 75.1739,-12.8141,-628.9591, 0.0000, 0.0000, 0.0000
26-Jun-2019 23:18:20.333,-0.1338,-0.1561,-1.0374,-0.0243, 0.0009,-0.0244, 0.1379, 0.2897, 0.0507,-0.1043, 0.1449,-0.1886,41.401803,-73.372952, 2.3200, 355.4545, 155.792206, 100.0, 32.0,Walking,Med, 99.7570, 0.7795, 75.3421,-13.9790,-627.4930, 0.0000, 0.0000, 0.0000
26-Jun-2019 23:18:20.340,-0.1406,-0.1697,-1.0544,-0.0330,-0.0105,-0.0532, 0.0891, 0.1914, 0.0455,-0.1020, 0.1460,-0.1878,41.401803,-73.372952, 2.3200, 355.4545, 155.792206, 100.0, 32.0,Walking,Med, 99.7570, 0.7795, 75.3421,-13.9790,-627.4930, 0.0000, 0.0000, 0.0000
26-Jun-2019 23:18:20.350,-0.1420,-0.1523,-1.0620,-0.0402,-0.0242,-0.0702, 0.0003, 0.1131, 0.0672,-0.1017, 0.1460,-0.1875,41.401803,-73.372952, 2.3200, 355.4545, 155.792206, 100.0, 32.0,Walking,Med, 99.7570, 0.7795, 75.3421,-13.9790,-627.4930, 0.0000, 0.0000, 0.0000
26-Jun-2019 23:18:20.363,-0.1209,-0.1302,-1.0484,-0.0421,-0.0077,-0.0775,-0.0778, 0.1042, 0.1294,-0.1011, 0.1451,-0.1865,41.401803,-73.372952, 2.3200, 355.4545, 155.792206, 100.0, 32.0,Walking,Med, 99.7570, 0.7795, 75.3421,-13.9790,-627.4930, 0.0000, 0.0000, 0.0000
26-Jun-2019 23:18:20.369,-0.0936,-0.1285,-1.0328,-0.0207, 0.0116,-0.0636,-0.0938, 0.0871, 0.1572,-0.1014, 0.1422,-0.1843,41.401803,-73.372952, 2.3200, 355.4545, 155.792206, 100.0, 32.0,Walking,Med, 99.7570, 0.7795, 76.3512,-13.6461,-627.1672, 0.0000, 0.0000, 0.0000
26-Jun-2019 23:18:20.380,-0.0860,-0.1248,-1.0122, 0.0067, 0.0127,-0.0479,-0.0845, 0.0308, 0.1467,-0.1016, 0.1417,-0.1837,41.401803,-73.372952, 2.3200, 355.4545, 155.792206, 100.0, 32.0,Walking,Med, 99.7570, 0.7795, 76.3512,-13.6461,-627.1672, 0.0000, 0.0000, 0.0000
26-Jun-2019 23:18:20.389,-0.0814,-0.1087,-1.0066, 0.0152, 0.0156,-0.0273,-0.0591,-0.0415, 0.1344,-0.1023, 0.1408,-0.1824,41.401803,-73.372952, 2.3200, 355.4545, 155.792206, 100.0, 32.0,Walking,Med, 99.7570, 0.7795, 76.3512,-13.6461,-627.1672, 0.0000, 0.0000, 0.0000
26-Jun-2019 23:18:20.399,-0.0850,-0.1213,-1.0217, 0.0203, 0.0314,-0.0217,-0.0591,-0.0415, 0.1344,-0.1029, 0.1405,-0.1818,41.401803,-73.372952, 2.3200, 355.4545, 155.792206, 100.0, 32.0,Walking,Med, 99.7570, 0.7795, 76.3512,-13.6461,-627.1672, 0.0000, 0.0000, 0.0000
26-Jun-2019 23:18:20.411,-0.1040,-0.1333,-1.0412, 0.0177, 0.0166,-0.0366,-0.0476,-0.0894, 0.0939,-0.1038, 0.1383,-0.1805,41.401803,-73.372952, 2.3200, 355.4545, 155.792206, 100.0, 32.0,Walking,Med, 99.7570, 0.7795, 75.6785,-12.6477,-628.1446, 0.0000, 0.0000, 0.0000
26-Jun-2019 23:18:20.419,-0.1006,-0.1317,-1.0503, 0.0003, 0.0040,-0.0561,-0.0437,-0.1342, 0.0617,-0.1055, 0.1377,-0.1799,41.401803,-73.372952, 2.3200, 355.4545, 155.792206, 100.0, 32.0,Walking,Med, 99.7570, 0.7795, 75.6785,-12.6477,-628.1446, 0.0000, 0.0000, 0.0000
26-Jun-2019 23:18:20.429,-0.0790,-0.1301,-1.0458, 0.0047, 0.0053,-0.0653,-0.0437,-0.1342, 0.0617,-0.1065, 0.1375,-0.1798,41.401803,-73.372952, 2.3200, 355.4545, 155.792206, 100.0, 32.0,Walking,Med, 99.7570, 0.7795, 75.6785,-12.6477,-628.1446, 0.0000, 0.0000, 0.0000
26-Jun-2019 23:18:20.441,-0.0632,-0.1315,-1.0375, 0.0301, 0.0065,-0.0612,-0.0150,-0.2567,-0.0274,-0.1104, 0.1370,-0.1799,41.401803,-73.372952, 2.3200, 354.2708, 155.792206, 100.0, 32.0,Walking,Med, 99.7570, 0.7795, 75.6785,-12.6477,-628.1446, 0.0000, 0.0000, 0.0000
26-Jun-2019 23:18:20.448,-0.0615,-0.1142,-1.0085, 0.0466, 0.0042,-0.0528,-0.0455,-0.2804,-0.0327,-0.1110, 0.1361,-0.1807,41.401803,-73.372952, 2.3200, 354.2708, 155.792206, 100.0, 32.0,Walking,Med, 99.7570, 0.7795, 73.9967,-11.9820,-627.4930, 0.0000, 0.0000, 0.0000
26-Jun-2019 23:18:20.458,-0.0688,-0.1011,-0.9862, 0.0496, 0.0212,-0.0239,-0.0455,-0.2804,-0.0327,-0.1124, 0.1357,-0.1809,41.401803,-73.372952, 2.3200, 354.2708, 155.792206, 100.0, 32.0,Walking,Med, 99.7570, 0.7795, 73.9967,-11.9820,-627.4930, 0.0000, 0.0000, 0.0000
26-Jun-2019 23:18:20.475,-0.0732,-0.1011,-0.9906, 0.0442, 0.0333,-0.0017,-0.0797,-0.1891,-0.0134,-0.1143, 0.1348,-0.1812,41.401803,-73.372952, 2.3200, 353.2410, 155.792206, 100.0, 32.0,Walking,Med, 99.7570, 0.7795, 73.9967,-11.9820,-627.4930, 0.0000, 0.0000, 0.0000
26-Jun-2019 23:18:20.485,-0.0757,-0.1013,-1.0016, 0.0421, 0.0320,-0.0062,-0.0567,-0.0770, 0.0136,-0.1166, 0.1334,-0.1812,41.401803,-73.372952, 2.3200, 353.2410, 155.792206, 100.0, 32.0,Walking,Med, 99.7570, 0.7795, 73.9967,-11.9820,-627.4930, 0.0000, 0.0000, 0.0000
26-Jun-2019 23:18:20.489,-0.0926,-0.1034,-0.9967, 0.0408, 0.0316,-0.0174,-0.0084,-0.1012,-0.0078,-0.1179, 0.1334,-0.1814,41.401803,-73.372952, 2.3200, 353.2410, 155.792206, 100.0, 32.0,Walking,Med, 99.7570, 0.7795, 74.5012,-12.1484,-628.9591, 0.0000, 0.0000, 0.0000
26-Jun-2019 23:18:20.498,-0.1120,-0.1087,-0.9730, 0.0408, 0.0316,-0.0174,-0.0084,-0.1012,-0.0078,-0.1179, 0.1334,-0.1814,41.401803,-73.372952, 2.3200, 353.2410, 155.792206, 100.0, 32.0,Walking,Med, 99.7570, 0.7795, 74.5012,-12.1484,-628.9591, 0.0000, 0.0000, 0.0000
26-Jun-2019 23:18:20.514,-0.1070,-0.1070,-0.9521, 0.0055, 0.0234, 0.0112, 0.0459,-0.0209, 0.0158,-0.1188, 0.1325,-0.1815,41.401803,-73.372952, 2.3200, 353.2410, 155.792206, 100.0, 32.0,Walking,Med, 99.7570, 0.7795, 74.5012,-12.1484,-628.9591, 0.0000, 0.0000, 0.0000
26-Jun-2019 23:18:20.518,-0.1024,-0.0938,-0.9348, 0.0109, 0.0264, 0.0319, 0.0921, 0.0126, 0.0510,-0.1193, 0.1338,-0.1807,41.401803,-73.372952, 2.3200, 353.2410, 155.792206, 100.0, 32.0,Walking,Med, 99.7570, 0.7795, 74.5012,-12.1484,-628.9591, 0.0000, 0.0000, 0.0000
26-Jun-2019 23:18:20.528,-0.1106,-0.0915,-0.9312, 0.0109, 0.0264, 0.0319, 0.0921, 0.0126, 0.0510,-0.1193, 0.1338,-0.1807,41.401803,-73.372952, 2.3200, 353.2410, 155.792206, 100.0, 32.0,Walking,Med, 99.7570, 0.7795, 74.5012,-12.1484,-628.9591, 0.0000, 0.0000, 0.0000
26-Jun-2019 23:18:20.537,-0.1277,-0.1106,-0.9548, 0.0076, 0.0446, 0.0524, 0.2305, 0.0127, 0.0568,-0.1196, 0.1365,-0.1794,41.401803,-73.372952, 2.3200, 353.2410, 155.792206, 100.0, 32.0,Walking,Med, 99.7570, 0.7795, 72.9877,-13.3133,-629.1219, 0.0000, 0.0000, 0.0000
26-Jun-2019 23:18:20.547,-0.1451,-0.1173,-0.9855,-0.0085, 0.0291, 0.0282, 0.2547,-0.0394, 0.0303,-0.1207, 0.1401,-0.1787,41.401803,-73.372952, 2.3200, 353.2410, 155.792206, 100.0, 32.0,Walking,Med, 99.7570, 0.7795, 72.9877,-13.3133,-629.1219, 0.0000, 0.0000, 0.0000
26-Jun-2019 23:18:20.557,-0.1596,-0.1331,-1.0095,-0.0085, 0.0291, 0.0282, 0.2547,-0.0394, 0.0303,-0.1207, 0.1401,-0.1787,41.401803,-73.372952, 2.3200, 353.2410, 155.792206, 100.0, 32.0,Walking,Med, 99.7570, 0.7795, 72.9877,-13.3133,-629.1219, 0.0000, 0.0000, 0.0000
26-Jun-2019 23:18:20.568,-0.1558,-0.1307,-1.0137,-0.0377, 0.0089,-0.0271, 0.1493,-0.0386,-0.1095,-0.1235, 0.1425,-0.1794,41.401803,-73.372952, 2.3200, 353.2410, 155.792206, 100.0, 32.0,Walking,Med, 99.7570, 0.7795, 72.9877,-13.3133,-629.1219, 0.0000, 0.0000, 0.0000
26-Jun-2019 23:18:20.577,-0.1519,-0.1181,-0.9904,-0.0330, 0.0119,-0.0316, 0.0362,-0.0362,-0.0821,-0.1244, 0.1431,-0.1806,41.401803,-73.372952, 2.3200, 353.2410, 155.792206, 100.0, 32.0,Walking,Med, 99.7570, 0.7795, 74.3331,-12.3148,-628.4704, 0.0000, 0.0000, 0.0000
26-Jun-2019 23:18:20.587,-0.1421,-0.1206,-0.9565,-0.0330, 0.0119,-0.0316, 0.0362,-0.0362,-0.0821,-0.1244, 0.1431,-0.1806,41.401803,-73.372952, 2.3200, 353.2410, 155.792206, 100.0, 32.0,Walking,Med, 99.7570, 0.7795, 74.3331,-12.3148,-628.4704, 0.0000, 0.0000, 0.0000
26-Jun-2019 23:18:20.597,-0.1319,-0.1264,-0.9425,-0.0188, 0.0211, 0.0257,-0.0651, 0.0059, 0.0055,-0.1249, 0.1421,-0.1810,41.401803,-73.372952, 2.3200, 353.2410, 155.792206, 100.0, 32.0,Walking,Med, 99.7570, 0.7795, 74.3331,-12.3148,-628.4704, 0.0000, 0.0000, 0.0000
26-Jun-2019 23:18:20.606,-0.1212,-0.1234,-0.9397,-0.0081, 0.0143, 0.0398,-0.0544,-0.0014, 0.0175,-0.1254, 0.1411,-0.1809,41.401803,-73.372952, 2.3200, 353.2410, 155.792206, 100.0, 32.0,Walking,Med, 99.7570, 0.7795, 74.3331,-12.3148,-628.4704, 0.0000, 0.0000, 0.0000
26-Jun-2019 23:18:20.616,-0.1147,-0.1238,-0.9398,-0.0081, 0.0143, 0.0398,-0.0544,-0.0014, 0.0175,-0.1254, 0.1411,-0.1809,41.401803,-73.372952, 2.3200, 353.2410, 155.792206, 100.0, 32.0,Walking,Med, 99.7570, 0.7795, 74.1649,-12.8141,-629.6107, 0.0000, 0.0000, 0.0000
26-Jun-2019 23:18:20.626,-0.0876,-0.1238,-0.9700, 0.0088, 0.0149, 0.0428,-0.1089, 0.0855, 0.0494,-0.1250, 0.1392,-0.1804,41.401803,-73.372952, 2.3200, 353.2410, 155.792206, 100.0, 32.0,Walking,Med, 99.7570, 0.7795, 74.1649,-12.8141,-629.6107, 0.0000, 0.0000, 0.0000
26-Jun-2019 23:18:20.637,-0.1067,-0.1211,-0.9841, 0.0332, 0.0120, 0.0134,-0.1848, 0.2200, 0.0269,-0.1222, 0.1362,-0.1804,41.401803,-73.372952, 2.3200, 353.2410, 155.792206, 100.0, 32.0,Walking,Med, 99.7570, 0.7795, 74.1649,-12.8141,-629.6107, 0.0000, 0.0000, 0.0000
26-Jun-2019 23:18:20.646,-0.1296,-0.1343,-0.9946, 0.0332, 0.0120, 0.0134,-0.1848, 0.2200, 0.0269,-0.1222, 0.1362,-0.1804,41.401803,-73.372952, 2.3200, 353.2410, 155.792206, 100.0, 32.0,Walking,Med, 99.7570, 0.7795, 74.1649,-12.8141,-629.6107, 0.0000, 0.0000, 0.0000
26-Jun-2019 23:18:20.656,-0.1205,-0.1335,-1.0134,-0.0136,-0.0032,-0.0100,-0.3517, 0.3604, 0.0596,-0.1173, 0.1314,-0.1805,41.401803,-73.372952, 2.3200, 354.6566, 155.792206, 100.0, 32.0,Walking,Med, 99.7570, 0.7795, 73.4922,-13.4797,-628.3075, 0.0000, 0.0000, 0.0000
26-Jun-2019 23:18:20.668,-0.1067,-0.1254,-1.0087,-0.0073,-0.0085,-0.0277,-0.3931, 0.2388, 0.0763,-0.1143, 0.1254,-0.1802,41.401803,-73.372952, 2.3200, 354.6566, 155.792206, 100.0, 32.0,Walking,Med, 99.7570, 0.7795, 73.4922,-13.4797,-628.3075, 0.0000, 0.0000, 0.0000
26-Jun-2019 23:18:20.675,-0.0958,-0.1223,-1.0137,-0.0073,-0.0085,-0.0277,-0.3931, 0.2388, 0.0763,-0.1143, 0.1254,-0.1802,41.401803,-73.372952, 2.3200, 354.6566, 155.792206, 100.0, 32.0,Walking,Med, 99.7570, 0.7795, 73.4922,-13.4797,-628.3075, 0.0000, 0.0000, 0.0000
26-Jun-2019 23:18:20.685,-0.1176,-0.1052,-1.0181, 0.0162, 0.0005,-0.0277,-0.3935, 0.1014, 0.0575,-0.1131, 0.1231,-0.1802,41.401803,-73.372952, 2.3200, 354.6566, 155.792206, 100.0, 32.0,Walking,Med, 99.7570, 0.7795, 73.4922,-13.4797,-628.3075, 0.0000, 0.0000, 0.0000
26-Jun-2019 23:18:20.696,-0.1340,-0.1151,-1.0198,-0.0052, 0.0124,-0.0314,-0.3348, 0.0050, 0.0451,-0.1134, 0.1179,-0.1802,41.401803,-73.372952, 2.3200, 354.6566, 155.792206, 100.0, 32.0,Walking,Med, 99.7570, 0.7795, 74.3331,-13.3133,-628.1446, 0.0000, 0.0000, 0.0000
26-Jun-2019 23:18:20.706,-0.1679,-0.1139,-1.0426,-0.0211, 0.0002,-0.0329,-0.2482,-0.0125, 0.0315,-0.1139, 0.1156,-0.1803,41.401803,-73.372952, 2.3200, 354.6566, 155.792206, 100.0, 32.0,Walking,Med, 99.7570, 0.7795, 74.3331,-13.3133,-628.1446, 0.0000, 0.0000, 0.0000
26-Jun-2019 23:18:20.717,-0.1660,-0.1228,-1.0506,-0.0535,-0.0000,-0.0558,-0.0478,-0.1036, 0.0024,-0.1154, 0.1141,-0.1805,41.401803,-73.372952, 2.3200, 353.6106, 155.792206, 100.0, 32.0,Walking,Med, 99.7570, 0.7795, 74.3331,-13.3133,-628.1446, 0.0000, 0.0000, 0.0000
26-Jun-2019 23:18:20.725,-0.1322,-0.1146,-1.0232,-0.0487,-0.0090,-0.0640,-0.0478,-0.1036, 0.0024,-0.1183, 0.1141,-0.1803,41.401803,-73.372952, 2.3200, 353.6106, 155.792206, 100.0, 32.0,Walking,Med, 99.7554, 0.9090, 74.3331,-13.3133,-628.1446, 0.0000, 0.0000, 0.0000
26-Jun-2019 23:18:20.736,-0.0978,-0.1028,-0.9794,-0.0127,-0.0005,-0.0370, 0.0284,-0.1700, 0.0184,-0.1205, 0.1144,-0.1801,41.401803,-73.372952, 2.3200, 353.6106, 155.792206, 100.0, 32.0,Walking,Med, 99.7554, 0.9090, 73.9967,-11.9820,-629.1219, 0.0000, 0.0000, 0.0000
26-Jun-2019 23:18:20.746,-0.0753,-0.1062,-0.9295, 0.0254, 0.0121, 0.0063, 0.0671,-0.2122, 0.0345,-0.1244, 0.1152,-0.1796,41.401803,-73.372952, 2.3200, 351.6908, 155.792206, 100.0, 32.0,Walking,Med, 99.7554, 0.9090, 73.9967,-11.9820,-629.1219, 0.0000, 0.0000, 0.0000
26-Jun-2019 23:18:20.755,-0.0568,-0.1154,-0.9012, 0.0490, 0.0089, 0.0561, 0.0671,-0.2122, 0.0345,-0.1255, 0.1154,-0.1794,41.401803,-73.372952, 2.3200, 351.6908, 155.792206, 100.0, 32.0,Walking,Med, 99.7554, 0.9090, 73.9967,-11.9820,-629.1219, 0.0000, 0.0000, 0.0000
26-Jun-2019 23:18:20.766,-0.0687,-0.1066,-0.8971, 0.0691,-0.0002, 0.0841, 0.0385,-0.1410, 0.0553,-0.1271, 0.1155,-0.1788,41.401803,-73.372952, 2.3200, 351.6908, 155.792206, 100.0, 32.0,Walking,Med, 99.7554, 0.9090, 73.9967,-11.9820,-629.1219, 0.0000, 0.0000, 0.0000
26-Jun-2019 23:18:20.784,-0.1018,-0.1062,-0.9186, 0.0580, 0.0082, 0.0882,-0.0216, 0.0439, 0.1066,-0.1278, 0.1150,-0.1774,41.401803,-73.372952, 2.3200, 349.0360, 155.792206, 100.0, 32.0,Walking,Med, 99.7554, 0.9090, 74.3331,-12.3148,-628.7962, 0.0000, 0.0000, 0.0000
26-Jun-2019 23:18:20.788,-0.1377,-0.1106,-0.9498, 0.0230, 0.0078, 0.0671,-0.0330, 0.1670, 0.0339,-0.1259, 0.1142,-0.1771,41.401803,-73.372952, 2.3200, 349.0360, 155.792206, 100.0, 32.0,Walking,Med, 99.7554, 0.9090, 74.3331,-12.3148,-628.7962, 0.0000, 0.0000, 0.0000
26-Jun-2019 23:18:20.794,-0.1641,-0.1265,-0.9836, 0.0230, 0.0078, 0.0671,-0.0330, 0.1670, 0.0339,-0.1259, 0.1142,-0.1771,41.401803,-73.372952, 2.3200, 349.0360, 155.792206, 100.0, 32.0,Walking,Med, 99.7554, 0.9090, 74.3331,-12.3148,-628.7962, 0.0000, 0.0000, 0.0000
26-Jun-2019 23:18:20.804,-0.1806,-0.1519,-1.0154,-0.0388,-0.0124, 0.0019,-0.0968, 0.3130,-0.0570,-0.1265, 0.1144,-0.1772,41.401803,-73.372952, 2.3200, 349.0360, 155.792206, 100.0, 32.0,Walking,Med, 99.7554, 0.9090, 74.3331,-12.3148,-628.7962, 0.0000, 0.0000, 0.0000
26-Jun-2019 23:18:20.817,-0.1543,-0.1289,-1.0164,-0.0606,-0.0414,-0.0288,-0.2429, 0.4056,-0.0412,-0.1211, 0.1107,-0.1783,41.401803,-73.372952, 2.3200, 349.0360, 155.792206, 100.0, 32.0,Walking,Med, 99.7554, 0.9090, 73.6604,-9.9850,-629.4478, 0.0000, 0.0000, 0.0000
26-Jun-2019 23:18:20.823,-0.1230,-0.1014,-0.9999,-0.0369,-0.0227,-0.0290,-0.3947, 0.3269, 0.0171,-0.1184, 0.1064,-0.1786,41.401803,-73.372952, 2.3200, 349.0360, 155.792206, 100.0, 32.0,Walking,Med, 99.7554, 0.9090, 73.6604,-9.9850,-629.4478, 0.0000, 0.0000, 0.0000
26-Jun-2019 23:18:20.834,-0.1148,-0.0993,-0.9774,-0.0075,-0.0034,-0.0115,-0.5730, 0.1394, 0.0793,-0.1163, 0.0982,-0.1787,41.401803,-73.372952, 2.3200, 351.5849, 155.792206, 100.0, 32.0,Walking,Med, 99.7554, 0.9090, 73.6604,-9.9850,-629.4478, 0.0000, 0.0000, 0.0000
26-Jun-2019 23:18:20.843,-0.1047,-0.0931,-0.9633,-0.0075,-0.0034,-0.0115,-0.5730, 0.1394, 0.0793,-0.1163, 0.0982,-0.1787,41.401803,-73.372952, 2.3200, 351.5849, 155.792206, 100.0, 32.0,Walking,Med, 99.7554, 0.9090, 73.6604,-9.9850,-629.4478, 0.0000, 0.0000, 0.0000
26-Jun-2019 23:18:20.859,-0.0798,-0.0925,-0.9617, 0.0098,-0.0050, 0.0262,-0.6441, 0.0975, 0.1101,-0.1151, 0.0882,-0.1783,41.401803,-73.372952, 2.3200, 351.5849, 155.792206, 100.0, 32.0,Walking,Med, 99.7554, 0.9090, 73.8285,-9.1529,-627.9817, 0.0000, 0.0000, 0.0000
26-Jun-2019 23:18:20.873,-0.0890,-0.0709,-0.9525, 0.0341,-0.0155, 0.0289,-0.7367, 0.0872, 0.1231,-0.1144, 0.0771,-0.1778,41.401803,-73.372952, 2.3200, 351.5849, 155.792206, 100.0, 32.0,Walking,Med, 99.7554, 0.9090, 73.8285,-9.1529,-627.9817, 0.0000, 0.0000, 0.0000
26-Jun-2019 23:18:20.875,-0.0890,-0.0709,-0.9525, 0.0341,-0.0155, 0.0289,-0.7367, 0.0872, 0.1231,-0.1144, 0.0771,-0.1778,41.401803,-73.372952, 2.3200, 351.5849, 155.792206, 100.0, 32.0,Walking,Med, 99.7554, 0.9090, 73.8285,-9.1529,-627.9817, 0.0000, 0.0000, 0.0000
26-Jun-2019 23:18:20.883,-0.1087,-0.0562,-0.9434, 0.0245,-0.0036, 0.0388,-0.6394, 0.0634, 0.1055,-0.1140, 0.0674,-0.1774,41.401803,-73.372952, 2.3200, 351.5849, 155.792206, 100.0, 32.0,Walking,Med, 99.7554, 0.9090, 73.8285,-9.1529,-627.9817, 0.0000, 0.0000, 0.0000
26-Jun-2019 23:18:20.893,-0.1162,-0.0505,-0.9573, 0.0051, 0.0057, 0.0482,-0.2583, 0.0057, 0.0705,-0.1143, 0.0619,-0.1770,41.401803,-73.372952, 2.3200, 353.7924, 155.792206, 100.0, 32.0,Walking,Med, 99.7554, 0.9090, 75.5103,-7.8216,-628.6333, 0.0000, 0.0000, 0.0000
26-Jun-2019 23:18:20.903,-0.1194,-0.0661,-0.9862, 0.0051, 0.0057, 0.0482,-0.2583, 0.0057, 0.0705,-0.1143, 0.0619,-0.1770,41.401803,-73.372952, 2.3200, 353.7924, 155.792206, 100.0, 32.0,Walking,Med, 99.7554, 0.9090, 75.5103,-7.8216,-628.6333, 0.0000, 0.0000, 0.0000
26-Jun-2019 23:18:20.918,-0.1331,-0.0826,-0.9993,-0.0049,-0.0069, 0.0055,-0.1626, 0.0054, 0.0886,-0.1150, 0.0593,-0.1761,41.401803,-73.372952, 2.3200, 353.7924, 155.792206, 100.0, 32.0,Walking,Med, 99.7554, 0.9090, 75.5103,-7.8216,-628.6333, 0.0000, 0.0000, 0.0000
26-Jun-2019 23:18:20.932,-0.1258,-0.0723,-0.9966,-0.0195,-0.0270,-0.0073,-0.2623, 0.1367, 0.1224,-0.1140, 0.0556,-0.1747,41.401803,-73.372952, 2.3200, 353.7924, 155.792206, 100.0, 32.0,Walking,Med, 99.7554, 0.9090, 75.5103,-7.8216,-628.6333, 0.0000, 0.0000, 0.0000
26-Jun-2019 23:18:20.934,-0.1258,-0.0723,-0.9966,-0.0195,-0.0270,-0.0073,-0.2623, 0.1367, 0.1224,-0.1140, 0.0556,-0.1747,41.401803,-73.372952, 2.3200, 353.7924, 155.792206, 100.0, 32.0,Walking,Med, 99.7554, 0.9090, 75.5103,-7.8216,-628.6333, 0.0000, 0.0000, 0.0000
26-Jun-2019 23:18:20.942,-0.1018,-0.0595,-0.9749,-0.0138,-0.0218,-0.0042,-0.3231, 0.1500, 0.1086,-0.1123, 0.0505,-0.1737,41.401803,-73.372952, 2.3200, 353.7924, 155.792206, 100.0, 32.0,Walking,Med, 99.7554, 0.9090, 75.8466,-7.8216,-628.6333, 0.0000, 0.0000, 0.0000
26-Jun-2019 23:18:20.952,-0.0585,-0.0314,-0.9568, 0.0087,-0.0148, 0.0180,-0.3650, 0.1155, 0.0672,-0.1109, 0.0448,-0.1732,41.401803,-73.372952, 2.3200, 351.8356, 155.792206, 100.0, 32.0,Walking,Med, 99.7554, 0.9090, 75.8466,-7.8216,-628.6333, 0.0000, 0.0000, 0.0000
26-Jun-2019 23:18:20.962,-0.0570,-0.0355,-0.9382, 0.0087,-0.0148, 0.0180,-0.3650, 0.1155, 0.0672,-0.1109, 0.0448,-0.1732,41.401803,-73.372952, 2.3200, 351.8356, 155.792206, 100.0, 32.0,Walking,Med, 99.7554, 0.9090, 75.8466,-7.8216,-628.6333, 0.0000, 0.0000, 0.0000
26-Jun-2019 23:18:20.980,-0.0746,-0.0513,-0.9236, 0.0512, 0.0036, 0.0551,-0.3428, 0.0486, 0.0516,-0.1084, 0.0391,-0.1732,41.401803,-73.372952, 2.3200, 351.8356, 155.792206, 100.0, 32.0,Walking,Med, 99.7554, 0.9090, 74.3331,-7.3223,-627.4930, 0.0000, 0.0000, 0.0000
26-Jun-2019 23:18:20.991,-0.0797,-0.0579,-1.0081, 0.0338,-0.0176, 0.0699,-0.3675, 0.0003, 0.0074,-0.1087, 0.0337,-0.1737,41.401803,-73.372952, 2.3200, 351.8356, 155.792206, 100.0, 32.0,Walking,Med, 99.7554, 0.9090, 74.3331,-7.3223,-627.4930, 0.0000, 0.0000, 0.0000
26-Jun-2019 23:18:20.993,-0.0797,-0.0579,-1.0081, 0.0338,-0.0176, 0.0699,-0.3675, 0.0003, 0.0074,-0.1087, 0.0337,-0.1737,41.401803,-73.372952, 2.3200, 351.8356, 155.792206, 100.0, 32.0,Walking,Med, 99.7554, 0.9090, 74.3331,-7.3223,-627.4930, 0.0000, 0.0000, 0.0000
26-Jun-2019 23:18:21.001,-0.0957,-0.0508,-1.0344, 0.0290,-0.0261,-0.0145,-0.3675, 0.0003, 0.0074,-0.1090, 0.0318,-0.1739,41.401803,-73.372952, 2.3200, 351.8356, 155.792206, 100.0, 32.0,Walking,Med, 99.7554, 0.9090, 74.3331,-7.3223,-627.4930, 0.0000, 0.0000, 0.0000
26-Jun-2019 23:18:21.013,-0.1206,-0.0414,-1.0423, 0.0168,-0.0293,-0.0409,-0.4070,-0.1312,-0.0524,-0.1128, 0.0215,-0.1758,41.401803,-73.372952, 2.3200, 350.6375, 155.792206, 100.0, 32.0,Walking,Med, 99.7554, 0.9090, 74.8376,-7.1559,-627.0043, 0.0000, 0.0000, 0.0000
26-Jun-2019 23:18:21.020,-0.1254,-0.0361,-1.0334, 0.0168,-0.0293,-0.0409,-0.4070,-0.1312,-0.0524,-0.1128, 0.0215,-0.1758,41.401803,-73.372952, 2.3200, 350.6375, 155.792206, 100.0, 32.0,Walking,Med, 99.7554, 0.9090, 74.8376,-7.1559,-627.0043, 0.0000, 0.0000, 0.0000
26-Jun-2019 23:18:21.030,-0.1210,-0.0298,-1.0085,-0.0116,-0.0160,-0.0401,-0.4070,-0.1312,-0.0524,-0.1140, 0.0201,-0.1764,41.401803,-73.372952, 2.3200, 350.6375, 155.792206, 100.0, 32.0,Walking,Med, 99.7554, 0.9090, 74.8376,-7.1559,-627.0043, 0.0000, 0.0000, 0.0000
26-Jun-2019 23:18:21.044,-0.1124,-0.0299,-0.9805,-0.0018,-0.0183,-0.0157,-0.3006,-0.1763,-0.1133,-0.1195, 0.0114,-0.1796,41.401803,-73.372952, 2.3200, 350.6375, 155.792206, 100.0, 32.0,Walking,Med, 99.7554, 0.9090, 74.8376,-7.1559,-627.0043, 0.0000, 0.0000, 0.0000
26-Jun-2019 23:18:21.050,-0.1022,-0.0446,-0.9561,-0.0018,-0.0183,-0.0157,-0.3006,-0.1763,-0.1133,-0.1195, 0.0114,-0.1796,41.401803,-73.372952, 2.3200, 350.6375, 155.792206, 100.0, 32.0,Walking,Med, 99.7554, 0.9090, 74.1649,-6.4902,-627.9817, 0.0000, 0.0000, 0.0000
26-Jun-2019 23:18:21.060,-0.0928,-0.0399,-0.9465, 0.0179,-0.0345, 0.0366,-0.3006,-0.1763,-0.1133,-0.1203, 0.0101,-0.1804,41.401803,-73.372952, 2.3200, 350.6375, 155.792206, 100.0, 32.0,Walking,Med, 99.7554, 0.9090, 74.1649,-6.4902,-627.9817, 0.0000, 0.0000, 0.0000
26-Jun-2019 23:18:21.074,-0.0756,-0.0361,-0.9472, 0.0274,-0.0366, 0.0462,-0.2727, 0.1148,-0.0223,-0.1204, 0.0033,-0.1831,41.401803,-73.372952, 2.3200, 350.6375, 155.792206, 100.0, 32.0,Walking,Med, 99.7554, 0.9090, 74.1649,-6.4902,-627.9817, 0.0000, 0.0000, 0.0000
26-Jun-2019 23:18:21.080,-0.0864,-0.0329,-0.9436, 0.0274,-0.0366, 0.0462,-0.2727, 0.1148,-0.0223,-0.1204, 0.0033,-0.1831,41.401803,-73.372952, 2.3200, 350.6375, 155.792206, 100.0, 32.0,Walking,Med, 99.7554, 0.9090, 74.1649,-6.4902,-627.9817, 0.0000, 0.0000, 0.0000
26-Jun-2019 23:18:21.090,-0.1019,-0.0241,-0.9408, 0.0312,-0.0313, 0.0495,-0.2101, 0.1048, 0.0180,-0.1179, 0.0017,-0.1833,41.401803,-73.372952, 2.3200, 350.6375, 155.792206, 100.0, 32.0,Walking,Med, 99.7554, 0.9090, 74.1649,-6.4902,-627.9817, 0.0000, 0.0000, 0.0000
26-Jun-2019 23:18:21.102,-0.1172,-0.0144,-0.9529, 0.0155,-0.0229, 0.0523,-0.0941, 0.0899, 0.0516,-0.1176, 0.0011,-0.1831,41.401803,-73.372952, 2.3200, 350.6375, 155.792206, 100.0, 32.0,Walking,Med, 99.7554, 0.9090, 74.8376,-4.4933,-627.3301, 0.0000, 0.0000, 0.0000
26-Jun-2019 23:18:21.110,-0.1321,-0.0013,-0.9851,-0.0005,-0.0133, 0.0402, 0.0462, 0.1060, 0.0658,-0.1170, 0.0011,-0.1825,41.401803,-73.372952, 2.3200, 350.6375, 155.792206, 100.0, 32.0,Walking,Med, 99.7554, 0.9090, 74.8376,-4.4933,-627.3301, 0.0000, 0.0000, 0.0000
26-Jun-2019 23:18:21.122,-0.1506,-0.0032,-1.0147,-0.0164, 0.0019, 0.0082, 0.1560, 0.1089, 0.0510,-0.1159, 0.0031,-0.1816,41.401803,-73.372952, 2.3200, 350.6375, 155.792206, 100.0, 32.0,Walking,Med, 99.7554, 0.9090, 74.8376,-4.4933,-627.3301, 0.0000, 0.0000, 0.0000
26-Jun-2019 23:18:21.130,-0.1635, 0.0063,-1.0315,-0.0164, 0.0019, 0.0082, 0.1560, 0.1089, 0.0510,-0.1159, 0.0031,-0.1816,41.401803,-73.372952, 2.3200, 350.6375, 155.792206, 100.0, 32.0,Walking,Med, 99.7554, 0.9090, 74.8376,-4.4933,-627.3301, 0.0000, 0.0000, 0.0000
26-Jun-2019 23:18:21.139,-0.1798, 0.0169,-1.0426,-0.0480, 0.0127,-0.0382, 0.2563, 0.0159, 0.0155,-0.1157, 0.0065,-0.1808,41.401803,-73.372952, 2.3200, 352.7435, 155.792206, 100.0, 32.0,Walking,Med, 99.7554, 0.9090, 75.5103,-6.1574,-628.3075, 0.0000, 0.0000, 0.0000
26-Jun-2019 23:18:21.149,-0.1514, 0.0155,-1.0226,-0.0613, 0.0236,-0.0497, 0.2563, 0.0159, 0.0155,-0.1189, 0.0066,-0.1806,41.401803,-73.372952, 2.3200, 352.7435, 155.792206, 100.0, 32.0,Walking,Med, 99.7554, 0.9090, 75.5103,-6.1574,-628.3075, 0.0000, 0.0000, 0.0000
26-Jun-2019 23:18:21.162,-0.0924, 0.0098,-0.9789,-0.0307, 0.0269,-0.0299, 0.3446,-0.1421,-0.0136,-0.1209, 0.0114,-0.1803,41.401803,-73.372952, 2.3200, 352.7435, 155.792206, 100.0, 32.0,Walking,Med, 99.7554, 0.9090, 75.5103,-6.1574,-628.3075, 0.0000, 0.0000, 0.0000
26-Jun-2019 23:18:21.169,-0.0587,-0.0022,-0.9341, 0.0303, 0.0247, 0.0134, 0.3728,-0.1791,-0.0212,-0.1230, 0.0150,-0.1801,41.401803,-73.372952, 2.3200, 350.9347, 155.792206, 100.0, 32.0,Walking,Med, 99.7554, 0.9090, 75.5103,-6.1574,-628.3075, 0.0000, 0.0000, 0.0000
26-Jun-2019 23:18:21.179,-0.0600,-0.0092,-0.9112, 0.0651, 0.0146, 0.0580, 0.3728,-0.1791,-0.0212,-0.1241, 0.0168,-0.1800,41.401803,-73.372952, 2.3200, 350.9347, 155.792206, 100.0, 32.0,Walking,Med, 99.7554, 0.9090, 73.6604,-5.9910,-628.7962, 0.0000, 0.0000, 0.0000
26-Jun-2019 23:18:21.191,-0.0757,-0.0035,-0.9194, 0.0634, 0.0111, 0.0810, 0.3778,-0.1567,-0.0087,-0.1237, 0.0202,-0.1797,41.401803,-73.372952, 2.3200, 350.9347, 155.792206, 100.0, 32.0,Walking,Med, 99.7554, 0.9090, 73.6604,-5.9910,-628.7962, 0.0000, 0.0000, 0.0000
26-Jun-2019 23:18:21.204,-0.0872, 0.0026,-0.9474, 0.0481, 0.0216, 0.0726, 0.3267, 0.0604, 0.0773,-0.1242, 0.0251,-0.1784,41.401803,-73.372952, 2.3200, 350.9347, 155.792206, 100.0, 32.0,Walking,Med, 99.7554, 0.9090, 73.6604,-5.9910,-628.7962, 0.0000, 0.0000, 0.0000
26-Jun-2019 23:18:21.208,-0.1030,-0.0025,-0.9621, 0.0357, 0.0314, 0.0446, 0.2747, 0.1091, 0.1227,-0.1232, 0.0288,-0.1762,41.401803,-73.372952, 2.3200, 350.9347, 155.792206, 100.0, 32.0,Walking,Med, 99.7554, 0.9090, 73.6604,-5.9910,-628.7962, 0.0000, 0.0000, 0.0000
26-Jun-2019 23:18:21.218,-0.1243,-0.0186,-0.9612, 0.0357, 0.0314, 0.0446, 0.2747, 0.1091, 0.1227,-0.1232, 0.0288,-0.1762,41.401803,-73.372952, 2.3200, 350.9347, 155.792206, 100.0, 32.0,Walking,Med, 99.7554, 0.9090, 73.1558,-5.4917,-627.9817, 0.0000, 0.0000, 0.0000
26-Jun-2019 23:18:21.228,-0.1342,-0.0195,-0.9547,-0.0033, 0.0118, 0.0310, 0.0759, 0.1788, 0.1117,-0.1213, 0.0304,-0.1742,41.401803,-73.372952, 2.3200, 350.9347, 155.792206, 100.0, 32.0,Walking,Med, 99.7554, 0.9090, 73.1558,-5.4917,-627.9817, 0.0000, 0.0000, 0.0000
26-Jun-2019 23:18:21.237,-0.1363,-0.0144,-0.9538,-0.0143, 0.0101, 0.0377,-0.0047, 0.1674, 0.0918,-0.1202, 0.0296,-0.1729,41.401803,-73.372952, 2.3200, 350.9347, 155.792206, 100.0, 32.0,Walking,Med, 99.7554, 0.9090, 73.1558,-5.4917,-627.9817, 0.0000, 0.0000, 0.0000
26-Jun-2019 23:18:21.248,-0.1424,-0.0053,-0.9554,-0.0143, 0.0101, 0.0377,-0.0047, 0.1674, 0.0918,-0.1202, 0.0296,-0.1729,41.401803,-73.372952, 2.3200, 350.9347, 155.792206, 100.0, 32.0,Walking,Med, 99.7554, 0.9090, 73.1558,-5.4917,-627.9817, 0.0000, 0.0000, 0.0000
26-Jun-2019 23:18:21.260,-0.1570,-0.0086,-0.9696,-0.0245, 0.0233, 0.0372,-0.0514, 0.1881, 0.0301,-0.1182, 0.0286,-0.1724,41.401803,-73.372952, 2.3200, 350.9347, 155.792206, 100.0, 32.0,Walking,Med, 99.7554, 0.9090, 73.8285,-6.8231,-627.9817, 0.0000, 0.0000, 0.0000
26-Jun-2019 23:18:21.267,-0.1581,-0.0050,-0.9772,-0.0420, 0.0191, 0.0234,-0.0570, 0.2274, 0.0186,-0.1153, 0.0277,-0.1723,41.401803,-73.372952, 2.3200, 350.9347, 155.792206, 100.0, 32.0,Walking,Med, 99.7554, 0.9090, 73.8285,-6.8231,-627.9817, 0.0000, 0.0000, 0.0000
26-Jun-2019 23:18:21.277,-0.1475,-0.0032,-0.9787,-0.0420, 0.0191, 0.0234,-0.0570, 0.2274, 0.0186,-0.1153, 0.0277,-0.1723,41.401803,-73.372952, 2.3200, 350.9347, 155.792206, 100.0, 32.0,Walking,Med, 99.7554, 0.9090, 73.8285,-6.8231,-627.9817, 0.0000, 0.0000, 0.0000
26-Jun-2019 23:18:21.287,-0.1284,-0.0085,-0.9763,-0.0364, 0.0239, 0.0147,-0.0110, 0.3086, 0.0091,-0.1114, 0.0270,-0.1724,41.401803,-73.372952, 2.3200, 350.9347, 155.792206, 100.0, 32.0,Walking,Med, 99.7554, 0.9090, 73.8285,-6.8231,-627.9817, 0.0000, 0.0000, 0.0000
26-Jun-2019 23:18:21.297,-0.1085,-0.0158,-0.9641,-0.0177, 0.0177, 0.0172,-0.0110, 0.3086, 0.0091,-0.1111, 0.0262,-0.1723,41.401803,-73.372952, 2.3200, 350.9347, 155.792206, 100.0, 32.0,Walking,Med, 99.7554, 0.9090, 76.6875,-7.3223,-628.4704, 0.0000, 0.0000, 0.0000
26-Jun-2019 23:18:21.310,-0.0894,-0.0167,-0.9617, 0.0001, 0.0112, 0.0296, 0.0711, 0.2742, 0.0363,-0.1088, 0.0270,-0.1718,41.401803,-73.372952, 2.3200, 350.9347, 155.792206, 100.0, 32.0,Walking,Med, 99.7554, 0.9090, 76.6875,-7.3223,-628.4704, 0.0000, 0.0000, 0.0000
26-Jun-2019 23:18:21.324,-0.0870,-0.0186,-0.9685, 0.0170, 0.0130, 0.0322, 0.2286, 0.1597, 0.0882,-0.1066, 0.0297,-0.1704,41.401803,-73.372952, 2.3200, 350.9347, 155.792206, 100.0, 32.0,Walking,Med, 99.7554, 0.9090, 76.6875,-7.3223,-628.4704, 0.0000, 0.0000, 0.0000
26-Jun-2019 23:18:21.328,-0.0981,-0.0225,-0.9908, 0.0179, 0.0141, 0.0254, 0.2277, 0.1437, 0.0864,-0.1051, 0.0328,-0.1688,41.401803,-73.372952, 2.3200, 350.9347, 155.792206, 100.0, 32.0,Walking,Med, 99.7554, 0.9090, 76.6875,-7.3223,-628.4704, 0.0000, 0.0000, 0.0000
26-Jun-2019 23:18:21.336,-0.1098,-0.0400,-1.0306, 0.0179, 0.0141, 0.0254, 0.2277, 0.1437, 0.0864,-0.1051, 0.0328,-0.1688,41.401803,-73.372952, 2.3200, 350.9347, 155.792206, 100.0, 32.0,Walking,Med, 99.7554, 0.9090, 76.0148,-7.6552,-628.1446, 0.0000, 0.0000, 0.0000
26-Jun-2019 23:18:21.350,-0.1185,-0.0352,-1.0410,-0.0054,-0.0050,-0.0367, 0.1185, 0.0373, 0.0423,-0.1046, 0.0350,-0.1679,41.401803,-73.372952, 2.3200, 350.9347, 155.792206, 100.0, 32.0,Walking,Med, 99.7554, 0.9090, 76.0148,-7.6552,-628.1446, 0.0000, 0.0000, 0.0000
26-Jun-2019 23:18:21.357,-0.1325,-0.0266,-1.0316,-0.0137, 0.0007,-0.0472, 0.0692,-0.0015, 0.0104,-0.1050, 0.0359,-0.1676,41.401803,-73.372952, 2.3200, 350.9347, 155.792206, 100.0, 32.0,Walking,Med, 99.7554, 0.9090, 76.0148,-7.6552,-628.1446, 0.0000, 0.0000, 0.0000
26-Jun-2019 23:18:21.366,-0.1107,-0.0306,-1.0033,-0.0137, 0.0007,-0.0472, 0.0692,-0.0015, 0.0104,-0.1050, 0.0359,-0.1676,41.401803,-73.372952, 2.3200, 350.9347, 155.792206, 100.0, 32.0,Walking,Med, 99.7554, 0.9090, 76.0148,-7.6552,-628.1446, 0.0000, 0.0000, 0.0000
26-Jun-2019 23:18:21.376,-0.0958,-0.0317,-0.9895,-0.0060, 0.0057,-0.0095, 0.0346, 0.0407, 0.0050,-0.1050, 0.0363,-0.1676,41.401803,-73.372952, 2.3200, 350.9347, 155.792206, 100.0, 32.0,Walking,Med, 99.7554, 0.9090, 75.0058,-6.3238,-627.4930, 0.0000, 0.0000, 0.0000
26-Jun-2019 23:18:21.386,-0.0990,-0.0291,-0.9725, 0.0089, 0.0048, 0.0043, 0.0346, 0.0407, 0.0050,-0.1050, 0.0365,-0.1676,41.401803,-73.372952, 2.3200, 350.9347, 155.792206, 100.0, 32.0,Walking,Med, 99.7554, 0.9090, 75.0058,-6.3238,-627.4930, 0.0000, 0.0000, 0.0000
26-Jun-2019 23:18:21.401,-0.0951,-0.0203,-0.9703, 0.0056, 0.0078, 0.0213, 0.0722, 0.0250,-0.0092,-0.1049, 0.0369,-0.1677,41.401803,-73.372952, 2.3200, 350.9347, 155.792206, 100.0, 32.0,Walking,Med, 99.7554, 0.9090, 75.0058,-6.3238,-627.4930, 0.0000, 0.0000, 0.0000
26-Jun-2019 23:18:21.415,-0.0923,-0.0182,-0.9787, 0.0095, 0.0187, 0.0234, 0.1644, 0.0514, 0.0042,-0.1048, 0.0390,-0.1676,41.401803,-73.372952, 2.3200, 349.5047, 155.792206, 100.0, 32.0,Walking,Med, 99.7554, 0.9090, 75.0058,-6.3238,-627.4930, 0.0000, 0.0000, 0.0000
26-Jun-2019 23:18:21.418,-0.0894,-0.0284,-0.9927, 0.0120, 0.0231, 0.0150, 0.1653, 0.0578, 0.0201,-0.1045, 0.0413,-0.1671,41.401803,-73.372952, 2.3200, 349.5047, 155.792206, 100.0, 32.0,Walking,Med, 99.7554, 0.9090, 76.1830,-7.4887,-628.3075, 0.0000, 0.0000, 0.0000
26-Jun-2019 23:18:21.425,-0.0923,-0.0247,-0.9984, 0.0120, 0.0231, 0.0150, 0.1653, 0.0578, 0.0201,-0.1045, 0.0413,-0.1671,41.401803,-73.372952, 2.3200, 349.5047, 155.792206, 100.0, 32.0,Walking,Med, 99.7554, 0.9090, 76.1830,-7.4887,-628.3075, 0.0000, 0.0000, 0.0000
26-Jun-2019 23:18:21.441,-0.0923,-0.0186,-0.9994, 0.0119, 0.0181,-0.0047, 0.0828, 0.0262,-0.0038,-0.1045, 0.0428,-0.1669,41.401803,-73.372952, 2.3200, 349.5047, 155.792206, 100.0, 32.0,Walking,Med, 99.7554, 0.9090, 76.1830,-7.4887,-628.3075, 0.0000, 0.0000, 0.0000
26-Jun-2019 23:18:21.448,-0.0932,-0.0239,-1.0013, 0.0124, 0.0242,-0.0058, 0.0076, 0.0021,-0.0255,-0.1050, 0.0428,-0.1674,41.401803,-73.372952, 2.3200, 349.5047, 155.792206, 100.0, 32.0,Walking,Med, 99.7554, 0.9090, 76.1830,-7.4887,-628.3075, 0.0000, 0.0000, 0.0000
26-Jun-2019 23:18:21.455,-0.1017,-0.0301,-1.0085, 0.0124, 0.0242,-0.0058, 0.0076, 0.0021,-0.0255,-0.1050, 0.0428,-0.1674,41.401803,-73.372952, 2.3200, 349.5047, 155.792206, 100.0, 32.0,Walking,Med, 99.7554, 0.9090, 75.6785,-7.6552,-626.5156, 0.0000, 0.0000, 0.0000
26-Jun-2019 23:18:21.471,-0.1040,-0.0397,-1.0080, 0.0034, 0.0102,-0.0149,-0.1591,-0.0100,-0.0667,-0.1054, 0.0403,-0.1685,41.401803,-73.372952, 2.3200, 349.5047, 155.792206, 100.0, 32.0,Walking,Med, 99.7554, 0.9090, 75.6785,-7.6552,-626.5156, 0.0000, 0.0000, 0.0000
26-Jun-2019 23:18:21.477,-0.0993,-0.0330,-1.0067, 0.0013,-0.0024,-0.0143,-0.2073, 0.0172,-0.0774,-0.1056, 0.0373,-0.1700,41.401803,-73.372952, 2.3200, 349.5047, 155.792206, 100.0, 32.0,Walking,Med, 99.7554, 0.9090, 75.6785,-7.6552,-626.5156, 0.0000, 0.0000, 0.0000
26-Jun-2019 23:18:21.485,-0.0931,-0.0334,-1.0137, 0.0013,-0.0024,-0.0143,-0.2073, 0.0172,-0.0774,-0.1056, 0.0373,-0.1700,41.401803,-73.372952, 2.3200, 349.5047, 155.792206, 100.0, 32.0,Walking,Med, 99.7554, 0.9090, 75.6785,-7.6552,-626.5156, 0.0000, 0.0000, 0.0000
26-Jun-2019 23:18:21.502,-0.1006,-0.0196,-1.0288, 0.0121, 0.0006,-0.0198,-0.2035, 0.0291,-0.0360,-0.1055, 0.0340,-0.1712,41.401803,-73.372952, 2.3200, 349.5047, 155.792206, 100.0, 32.0,Walking,Med, 99.7554, 0.9090, 75.0058,-7.3223,-628.7962, 0.0000, 0.0000, 0.0000
26-Jun-2019 23:18:21.507,-0.1095,-0.0182,-1.0385, 0.0052, 0.0120,-0.0349,-0.1490,-0.0076, 0.0016,-0.1061, 0.0317,-0.1716,41.401803,-73.372952, 2.3200, 349.5047, 155.792206, 100.0, 32.0,Walking,Med, 99.7554, 0.9090, 75.0058,-7.3223,-628.7962, 0.0000, 0.0000, 0.0000
26-Jun-2019 23:18:21.514,-0.1088,-0.0167,-1.0291, 0.0052, 0.0120,-0.0349,-0.1490,-0.0076, 0.0016,-0.1061, 0.0317,-0.1716,41.401803,-73.372952, 2.3200, 349.5047, 155.792206, 100.0, 32.0,Walking,Med, 99.7554, 0.9090, 75.0058,-7.3223,-628.7962, 0.0000, 0.0000, 0.0000
26-Jun-2019 23:18:21.524,-0.1029,-0.0209,-1.0193,-0.0019, 0.0134,-0.0353,-0.0018,-0.0478, 0.0339,-0.1071, 0.0301,-0.1713,41.401803,-73.372952, 2.3200, 349.5047, 155.792206, 100.0, 32.0,Walking,Med, 99.7554, 0.9090, 75.0058,-7.3223,-628.7962, 0.0000, 0.0000, 0.0000
26-Jun-2019 23:18:21.534,-0.1002,-0.0270,-1.0044,-0.0019, 0.0134,-0.0353,-0.0018,-0.0478, 0.0339,-0.1071, 0.0301,-0.1713,41.401803,-73.372952, 2.3200, 349.5047, 155.792206, 100.0, 32.0,Walking,Med, 99.7554, 0.9090, 75.1739,-7.1559,-628.6333, 0.0000, 0.0000, 0.0000
26-Jun-2019 23:18:21.552,-0.0973,-0.0367,-0.9938, 0.0075, 0.0035,-0.0107, 0.0502,-0.0452, 0.0419,-0.1080, 0.0305,-0.1707,41.401803,-73.372952, 2.3200, 349.5047, 155.792206, 100.0, 32.0,Walking,Med, 99.7554, 0.9090, 75.1739,-7.1559,-628.6333, 0.0000, 0.0000, 0.0000
26-Jun-2019 23:18:21.566,-0.1060,-0.0527,-0.9843, 0.0112,-0.0049,-0.0002, 0.0720,-0.0590,-0.0002,-0.1088, 0.0318,-0.1705,41.401803,-73.372952, 2.3200, 349.5047, 155.792206, 100.0, 32.0,Walking,Med, 99.7554, 0.9090, 75.1739,-7.1559,-628.6333, 0.0000, 0.0000, 0.0000
26-Jun-2019 23:18:21.568,-0.1060,-0.0527,-0.9843, 0.0038,-0.0194, 0.0090, 0.0720,-0.0590,-0.0002,-0.1102, 0.0333,-0.1708,41.401803,-73.372952, 2.3200, 349.5047, 155.792206, 100.0, 32.0,Walking,Med, 99.7554, 0.9090, 75.1739,-7.1559,-628.6333, 0.0000, 0.0000, 0.0000
26-Jun-2019 23:18:21.573,-0.1084,-0.0446,-0.9708, 0.0038,-0.0194, 0.0090, 0.0371,-0.0647,-0.0208,-0.1102, 0.0333,-0.1708,41.401803,-73.372952, 2.3200, 349.5047, 155.792206, 100.0, 32.0,Walking,Med, 99.7554, 0.9090, 75.1739,-7.1559,-628.6333, 0.0000, 0.0000, 0.0000
26-Jun-2019 23:18:21.583,-0.1121,-0.0391,-0.9647, 0.0019,-0.0108, 0.0225, 0.0048,-0.0331,-0.0260,-0.1106, 0.0339,-0.1710,41.401803,-73.372952, 2.3200, 349.5047, 155.792206, 100.0, 32.0,Walking,Med, 99.7554, 0.9090, 77.1920,-6.1574,-627.6559, 0.0000, 0.0000, 0.0000
26-Jun-2019 23:18:21.593,-0.1160,-0.0459,-0.9675,-0.0013,-0.0050, 0.0286,-0.0041, 0.0115,-0.0354,-0.1111, 0.0341,-0.1714,41.401803,-73.372952, 2.3200, 349.5047, 155.792206, 100.0, 32.0,Walking,Med, 99.7554, 0.9090, 77.1920,-6.1574,-627.6559, 0.0000, 0.0000, 0.0000
26-Jun-2019 23:18:21.603,-0.1102,-0.0372,-0.9706,-0.0048,-0.0115, 0.0257,-0.0151, 0.0339,-0.0232,-0.1115, 0.0343,-0.1718,41.401803,-73.372952, 2.3200, 349.5047, 155.792206, 100.0, 32.0,Walking,Med, 99.7554, 0.9090, 77.1920,-6.1574,-627.6559, 0.0000, 0.0000, 0.0000
26-Jun-2019 23:18:21.613,-0.1071,-0.0390,-0.9812, 0.0010,-0.0029, 0.0226,-0.0226, 0.0381,-0.0223,-0.1115, 0.0343,-0.1720,41.401803,-73.372952, 2.3200, 349.5047, 155.792206, 100.0, 32.0,Walking,Med, 99.7554, 0.9090, 77.1920,-6.1574,-627.6559, 0.0000, 0.0000, 0.0000
26-Jun-2019 23:18:21.625,-0.1118,-0.0517,-1.0034, 0.0043,-0.0049, 0.0119,-0.0181, 0.0168,-0.0282,-0.1116, 0.0341,-0.1723,41.401803,-73.372952, 2.3200, 349.5047, 155.792206, 100.0, 32.0,Walking,Med, 99.7554, 0.9090, 75.8466,-7.4887,-628.9591, 0.0000, 0.0000, 0.0000
26-Jun-2019 23:18:21.633,-0.1378,-0.0537,-1.0330, 0.0003,-0.0180,-0.0103,-0.0209,-0.0130,-0.0277,-0.1124, 0.0337,-0.1728,41.401803,-73.372952, 2.3200, 349.5047, 155.792206, 100.0, 32.0,Walking,Med, 99.7554, 0.9090, 75.8466,-7.4887,-628.9591, 0.0000, 0.0000, 0.0000
26-Jun-2019 23:18:21.643,-0.1228,-0.0648,-1.0305,-0.0251,-0.0202,-0.0399,-0.0300,-0.0663,-0.0119,-0.1129, 0.0335,-0.1730,41.401803,-73.372952, 2.3200, 349.5047, 155.792206, 100.0, 32.0,Walking,Med, 99.7554, 0.9090, 75.8466,-7.4887,-628.9591, 0.0000, 0.0000, 0.0000
26-Jun-2019 23:18:21.653,-0.0825,-0.0588,-1.0066,-0.0086,-0.0305,-0.0377,-0.0359,-0.1174,-0.0089,-0.1145, 0.0343,-0.1731,41.401803,-73.372952, 2.3200, 349.5047, 155.792206, 100.0, 32.0,Walking,Med, 99.7554, 0.9090, 75.8466,-7.4887,-628.9591, 0.0000, 0.0000, 0.0000
26-Jun-2019 23:18:21.662,-0.0572,-0.0418,-0.9645, 0.0344,-0.0249,-0.0140,-0.0238,-0.1492,-0.0071,-0.1173, 0.0339,-0.1734,41.401803,-73.372952, 2.3200, 349.5047, 155.792206, 100.0, 32.0,Walking,Med, 99.7554, 0.9090, 75.8466,-6.8231,-627.9817, 0.0000, 0.0000, 0.0000
26-Jun-2019 23:18:21.675,-0.0529,-0.0220,-0.9463, 0.0621,-0.0068, 0.0277, 0.1290,-0.1075,-0.0029,-0.1196, 0.0350,-0.1734,41.401803,-73.372952, 2.3200, 349.5047, 155.792206, 100.0, 32.0,Walking,Med, 99.7554, 0.9090, 75.8466,-6.8231,-627.9817, 0.0000, 0.0000, 0.0000
26-Jun-2019 23:18:21.682,-0.0772,-0.0147,-0.9421, 0.0621,-0.0068, 0.0277, 0.1290,-0.1075,-0.0029,-0.1196, 0.0350,-0.1734,41.401803,-73.372952, 2.3200, 347.9773, 155.792206, 100.0, 32.0,Walking,Med, 99.7554, 0.9090, 75.8466,-6.8231,-627.9817, 0.0000, 0.0000, 0.0000
26-Jun-2019 23:18:21.692,-0.1092,-0.0212,-0.9514, 0.0437, 0.0231, 0.0499, 0.1988,-0.0687, 0.0014,-0.1213, 0.0378,-0.1732,41.401803,-73.372952, 2.3200, 347.9773, 155.792206, 100.0, 32.0,Walking,Med, 99.7554, 0.9090, 75.8466,-6.8231,-627.9817, 0.0000, 0.0000, 0.0000
26-Jun-2019 23:18:21.702,-0.1299,-0.0380,-0.9551, 0.0118, 0.0170, 0.0405, 0.2222,-0.0505,-0.0199,-0.1214, 0.0383,-0.1732,41.401803,-73.372952, 2.3200, 347.9773, 155.792206, 100.0, 32.0,Walking,Med, 99.7554, 0.9090, 74.8376,-7.1559,-628.6333, 0.0000, 0.0000, 0.0000
26-Jun-2019 23:18:21.712,-0.1473,-0.0473,-0.9449,-0.0079, 0.0021, 0.0366, 0.1727,-0.0712,-0.0575,-0.1224, 0.0401,-0.1735,41.401803,-73.372952, 2.3200, 347.9773, 155.792206, 100.0, 32.0,Walking,Med, 99.7554, 0.9090, 74.8376,-7.1559,-628.6333, 0.0000, 0.0000, 0.0000
26-Jun-2019 23:18:21.722,-0.1515,-0.0594,-0.9136,-0.0246,-0.0066, 0.0467, 0.1727,-0.0712,-0.0575,-0.1231, 0.0407,-0.1738,41.401803,-73.372952, 2.3200, 347.9773, 155.792206, 100.0, 32.0,Walking,Med, 99.7554, 0.9090, 74.8376,-7.1559,-628.6333, 0.0000, 0.0000, 0.0000
26-Jun-2019 23:18:21.732,-0.1530,-0.0600,-0.8950,-0.0271,-0.0185, 0.0778, 0.0450,-0.1426,-0.0992,-0.1248, 0.0410,-0.1749,41.401803,-73.372952, 2.3200, 347.9773, 155.792206, 100.0, 32.0,Walking,Med, 99.7536, 1.0648, 74.8376,-7.1559,-628.6333, 0.0000, 0.0000, 0.0000
26-Jun-2019 23:18:21.742,-0.1504,-0.0687,-0.9030,-0.0256,-0.0186, 0.0960,-0.0717,-0.0089,-0.2182,-0.1278, 0.0414,-0.1778,41.401803,-73.372952, 2.3200, 349.0604, 155.792206, 100.0, 32.0,Walking,Med, 99.7536, 1.0648, 75.3421,-7.9880,-628.4704, 0.0000, 0.0000, 0.0000
26-Jun-2019 23:18:21.751,-0.1838,-0.0127,-0.8700,-0.0231,-0.0276, 0.0881,-0.0717,-0.0089,-0.2182,-0.1277, 0.0411,-0.1791,41.401803,-73.372952, 2.3200, 349.0604, 155.792206, 100.0, 32.0,Walking,Med, 99.7536, 1.0648, 75.3421,-7.9880,-628.4704, 0.0000, 0.0000, 0.0000
26-Jun-2019 23:18:21.763,-0.1909, 0.0382,-0.7764,-0.0580, 0.0280, 0.1212,-0.0436, 0.1880,-0.2908,-0.1263, 0.0407,-0.1837,41.401803,-73.372952, 2.3200, 349.0604, 155.792206, 100.0, 32.0,Walking,Med, 99.7536, 1.0648, 75.3421,-7.9880,-628.4704, 0.0000, 0.0000, 0.0000
26-Jun-2019 23:18:21.771,-0.1646, 0.0096,-0.6757,-0.0685, 0.0788, 0.2152,-0.0316, 0.4446,-0.2836,-0.1228, 0.0407,-0.1866,41.401803,-73.372952, 2.3200, 350.1916, 155.792206, 100.0, 32.0,Walking,Med, 99.7536, 1.0648, 75.3421,-7.9880,-628.4704, 0.0000, 0.0000, 0.0000
26-Jun-2019 23:18:21.782,-0.0883,-0.0181,-0.5536,-0.0525, 0.0484, 0.3172,-0.1355, 0.7034,-0.3216,-0.1124, 0.0388,-0.1917,41.401803,-73.372952, 2.3200, 350.1916, 155.792206, 100.0, 32.0,Walking,Med, 99.7536, 1.0648, 75.1739,-6.1574,-627.6559, 0.0000, 0.0000, 0.0000
26-Jun-2019 23:18:21.792, 0.0738,-0.1132,-0.0837, 0.0193, 0.0190, 0.4399,-0.3774, 0.9196,-0.3412,-0.1079, 0.0371,-0.1937,41.401803,-73.372952, 2.3200, 350.1916, 155.792206, 100.0, 32.0,Walking,Med, 99.7536, 1.0648, 75.1739,-6.1574,-627.6559, 0.0000, 0.0000, 0.0000
26-Jun-2019 23:18:21.801, 0.0178, 0.0220, 0.0185, 0.1693,-0.0787, 0.9111,-0.2389, 1.3397,-0.1447,-0.0957, 0.0345,-0.1960,41.401803,-73.372952, 2.3200, 358.6656, 155.792206, 100.0, 32.0,Walking,Med, 99.7536, 1.0648, 75.1739,-6.1574,-627.6559, 0.0000, 0.0000, 0.0000
26-Jun-2019 23:18:21.810, 0.0097, 0.0204,-0.0018, 0.1067, 0.0553, 1.0140,-0.2389, 1.3397,-0.1447,-0.0891, 0.0334,-0.1968,41.401803,-73.372952, 2.3200, 358.6656, 155.792206, 100.0, 32.0,Walking,Med, 99.7536, 1.0648, 75.1739,-6.1574,-627.6559, 0.0000, 0.0000, 0.0000
26-Jun-2019 23:18:21.824, 0.0099, 0.0179, 0.0001, 0.0787, 0.0503, 0.9953,-0.2296, 1.3601,-0.1354,-0.0691, 0.0299,-0.1991,41.401803,-73.372952, 2.3200, 358.6656, 155.792206, 100.0, 32.0,Walking,Med, 99.7536, 1.0648, 78.0329,-5.6582,-627.8188, 0.0000, 0.0000, 0.0000
26-Jun-2019 23:18:21.830, 0.0094, 0.0170,-0.0018, 0.0657, 0.0455, 0.9982,-0.2274, 1.3601,-0.1385,-0.0558, 0.0276,-0.2007,41.401803,-73.372952, 2.3200, 358.6656, 155.792206, 100.0, 32.0,Walking,Med, 99.7536, 1.0648, 78.0329,-5.6582,-627.8188, 0.0000, 0.0000, 0.0000
26-Jun-2019 23:18:21.840, 0.0114, 0.0183,-0.0046, 0.0585, 0.0435, 0.9967,-0.2274, 1.3601,-0.1385,-0.0492, 0.0265,-0.2015,41.401803,-73.372952, 2.3200, 1.9315, 155.792206, 100.0, 32.0,Walking,Med, 99.7536, 1.0648, 78.0329,-5.6582,-627.8188, 0.0000, 0.0000, 0.0000
26-Jun-2019 23:18:21.852, 0.0113, 0.0185,-0.0040, 0.0406, 0.0414, 0.9947,-0.2242, 1.3611,-0.1428,-0.0292, 0.0231,-0.2038,41.401803,-73.372952, 2.3200, 1.9315, 155.792206, 100.0, 32.0,Walking,Med, 99.7536, 1.0648, 78.0329,-5.6582,-627.8188, 0.0000, 0.0000, 0.0000
26-Jun-2019 23:18:21.860, 0.0085, 0.0185,-0.0046, 0.0272, 0.0393, 0.9957,-0.2231, 1.3611,-0.1428,-0.0159, 0.0208,-0.2053,41.401803,-73.372952, 2.3200, 6.6286, 155.792206, 100.0, 32.0,Walking,Med, 99.7536, 1.0648, 82.4054,-4.6597,-627.1672, 0.0000, 0.0000, 0.0000
26-Jun-2019 23:18:21.870, 0.0091, 0.0184,-0.0052, 0.0177, 0.0381, 0.9951,-0.2231, 1.3611,-0.1428,-0.0092, 0.0197,-0.2061,41.401803,-73.372952, 2.3200, 6.6286, 155.792206, 100.0, 32.0,Walking,Med, 99.7536, 1.0648, 82.4054,-4.6597,-627.1672, 0.0000, 0.0000, 0.0000
26-Jun-2019 23:18:21.880, 0.0112, 0.0170,-0.0082, 0.0051, 0.0358, 0.9946,-0.2210, 1.3580,-0.1448, 0.0040, 0.0174,-0.2076,41.401803,-73.372952, 2.3200, 6.6286, 155.792206, 100.0, 32.0,Walking,Med, 99.7536, 1.0648, 82.4054,-4.6597,-627.1672, 0.0000, 0.0000, 0.0000
26-Jun-2019 23:18:21.889, 0.0102, 0.0179,-0.0093,-0.0127, 0.0310, 0.9914,-0.2188, 1.3590,-0.1502, 0.0239, 0.0139,-0.2099,41.401803,-73.372952, 2.3200, 5.4778, 155.792206, 100.0, 32.0,Walking,Med, 99.7536, 1.0648, 82.4054,-4.6597,-627.1672, 0.0000, 0.0000, 0.0000
26-Jun-2019 23:18:21.899, 0.0119, 0.0171,-0.0124,-0.0203, 0.0306, 0.9901,-0.2188, 1.3590,-0.1502, 0.0305, 0.0128,-0.2106,41.401803,-73.372952, 2.3200, 5.4778, 155.792206, 100.0, 32.0,Walking,Med, 99.7536, 1.0648, 84.5917,-3.4948,-625.7010, 0.0000, 0.0000, 0.0000
26-Jun-2019 23:18:21.912, 0.0102, 0.0190,-0.0140,-0.0319, 0.0276, 0.9866,-0.2188, 1.3548,-0.1511, 0.0438, 0.0104,-0.2121,41.401803,-73.372952, 2.3200, 5.4778, 155.792206, 100.0, 32.0,Walking,Med, 99.7536, 1.0648, 84.5917,-3.4948,-625.7010, 0.0000, 0.0000, 0.0000
26-Jun-2019 23:18:21.919, 0.0085, 0.0176,-0.0147,-0.0533, 0.0260, 0.9839,-0.2155, 1.3484,-0.1542, 0.0635, 0.0070,-0.2143,41.401803,-73.372952, 2.3200, 6.5662, 155.792206, 100.0, 32.0,Walking,Med, 99.7536, 1.0648, 84.5917,-3.4948,-625.7010, 0.0000, 0.0000, 0.0000
26-Jun-2019 23:18:21.928, 0.0107, 0.0175,-0.0177,-0.0745, 0.0211, 0.9818,-0.2143, 1.3420,-0.1583, 0.0832, 0.0034,-0.2165,41.401803,-73.372952, 2.3200, 6.5662, 155.792206, 100.0, 32.0,Walking,Med, 99.7536, 1.0648, 84.5917,-3.4948,-625.7010, 0.0000, 0.0000, 0.0000
26-Jun-2019 23:18:21.939, 0.0109, 0.0184,-0.0184,-0.0745, 0.0211, 0.9818,-0.2143, 1.3420,-0.1583, 0.0832, 0.0034,-0.2165,41.401803,-73.372952, 2.3200, 6.5662, 155.792206, 100.0, 32.0,Walking,Med, 99.7536, 1.0648, 87.1143,-2.3298,-624.5608, 0.0000, 0.0000, 0.0000
26-Jun-2019 23:18:21.949, 0.0080, 0.0195,-0.0219,-0.0915, 0.0182, 0.9764,-0.2152, 1.3271,-0.1602, 0.1026,-0.0001,-0.2187,41.401803,-73.372952, 2.3200, 6.5662, 155.792206, 100.0, 32.0,Walking,Med, 99.7536, 1.0648, 87.1143,-2.3298,-624.5608, 0.0000, 0.0000, 0.0000
26-Jun-2019 23:18:21.958, 0.0090, 0.0195,-0.0230,-0.1008, 0.0182, 0.9722,-0.2152, 1.3271,-0.1602, 0.1091,-0.0013,-0.2194,41.401803,-73.372952, 2.3200, 3.8799, 155.792206, 100.0, 32.0,Walking,Med, 99.7536, 1.0648, 87.1143,-2.3298,-624.5608, 0.0000, 0.0000, 0.0000
26-Jun-2019 23:18:21.974, 0.0085, 0.0174,-0.0271,-0.1125, 0.0158, 0.9696,-0.2129, 1.3154,-0.1653, 0.1218,-0.0037,-0.2208,41.401803,-73.372952, 2.3200, 3.8799, 155.792206, 100.0, 32.0,Walking,Med, 99.7536, 1.0648, 87.1143,-2.3298,-624.5608, 0.0000, 0.0000, 0.0000
26-Jun-2019 23:18:21.987, 0.0112, 0.0166,-0.0306,-0.1503, 0.0064, 0.9602,-0.2114, 1.2824,-0.1689, 0.1595,-0.0110,-0.2250,41.401803,-73.372952, 2.3200, 0.2505, 155.792206, 100.0, 32.0,Walking,Med, 99.7536, 1.0648, 90.3096,-1.1649,-622.1172, 0.0000, 0.0000, 0.0000
26-Jun-2019 23:18:21.991, 0.0112, 0.0166,-0.0306,-0.1503, 0.0064, 0.9602,-0.2114, 1.2824,-0.1689, 0.1595,-0.0110,-0.2250,41.401803,-73.372952, 2.3200, 0.2505, 155.792206, 100.0, 32.0,Walking,Med, 99.7536, 1.0648, 90.3096,-1.1649,-622.1172, 0.0000, 0.0000, 0.0000
26-Jun-2019 23:18:22.001, 0.0112, 0.0168,-0.0325,-0.1658, 0.0022, 0.9516,-0.2114, 1.2824,-0.1689, 0.1779,-0.0146,-0.2271,41.401803,-73.372952, 2.3200, 0.2505, 155.792206, 100.0, 32.0,Walking,Med, 99.7536, 1.0648, 90.3096,-1.1649,-622.1172, 0.0000, 0.0000, 0.0000
26-Jun-2019 23:18:22.007, 0.0110, 0.0179,-0.0350,-0.1658, 0.0022, 0.9516,-0.2057, 1.2537,-0.1715, 0.1779,-0.0146,-0.2271,41.401803,-73.372952, 2.3200, 0.2505, 155.792206, 100.0, 32.0,Walking,Med, 99.7536, 1.0648, 90.3096,-1.1649,-622.1172, 0.0000, 0.0000, 0.0000
26-Jun-2019 23:18:22.018, 0.0084, 0.0176,-0.0381,-0.1836,-0.0003, 0.9457,-0.2023, 1.2356,-0.1722, 0.1959,-0.0182,-0.2291,41.401803,-73.372952, 2.3200, 0.2505, 155.792206, 100.0, 32.0,Walking,High, 99.7536, 1.0648, 92.6641, 0.1664,-620.4883, 0.0000, 0.0000, 0.0000
26-Jun-2019 23:18:22.027, 0.0105, 0.0167,-0.0417,-0.1836,-0.0003, 0.9457,-0.2023, 1.2356,-0.1722, 0.1959,-0.0182,-0.2291,41.401803,-73.372952, 2.3200, 0.2505, 155.792206, 100.0, 32.0,Walking,High, 99.7536, 1.0648, 92.6641, 0.1664,-620.4883, 0.0000, 0.0000, 0.0000
26-Jun-2019 23:18:22.045, 0.0104, 0.0179,-0.0411,-0.2013,-0.0051, 0.9354,-0.1965, 1.1984,-0.1768, 0.2134,-0.0218,-0.2311,41.401803,-73.372952, 2.3200, 357.4463, 155.792206, 100.0, 32.0,Walking,High, 99.7536, 1.0648, 92.6641, 0.1664,-620.4883, 0.0000, 0.0000, 0.0000
26-Jun-2019 23:18:22.050, 0.0094, 0.0164,-0.0454,-0.2180,-0.0074, 0.9322,-0.1941, 1.1750,-0.1774, 0.2305,-0.0253,-0.2331,41.401803,-73.372952, 2.3200, 357.4463, 155.792206, 100.0, 32.0,Walking,High, 99.7536, 1.0648, 92.6641, 0.1664,-620.4883, 0.0000, 0.0000, 0.0000
26-Jun-2019 23:18:22.057, 0.0112, 0.0178,-0.0486,-0.2180,-0.0074, 0.9322,-0.1941, 1.1750,-0.1774, 0.2305,-0.0253,-0.2331,41.401803,-73.372952, 2.3200, 357.4463, 155.792206, 100.0, 32.0,Walking,High, 99.7536, 1.0648, 96.8684, 1.6642,-619.3480, 0.0000, 0.0000, 0.0000
26-Jun-2019 23:18:22.074, 0.0115, 0.0163,-0.0522,-0.2332,-0.0111, 0.9207,-0.1840, 1.1250,-0.1785, 0.2470,-0.0288,-0.2351,41.401803,-73.372952, 2.3200, 356.0443, 155.792206, 100.0, 32.0,Walking,High, 99.7536, 1.0648, 96.8684, 1.6642,-619.3480, 0.0000, 0.0000, 0.0000
26-Jun-2019 23:18:22.083, 0.0102, 0.0173,-0.0564,-0.2482,-0.0159, 0.9130,-0.1804, 1.0931,-0.1789, 0.2628,-0.0323,-0.2371,41.401803,-73.372952, 2.3200, 356.0443, 155.792206, 100.0, 32.0,Walking,High, 99.7536, 1.0648, 96.8684, 1.6642,-619.3480, 0.0000, 0.0000, 0.0000
26-Jun-2019 23:18:22.086, 0.0107, 0.0161,-0.0588,-0.2482,-0.0159, 0.9130,-0.1804, 1.0931,-0.1789, 0.2628,-0.0323,-0.2371,41.401803,-73.372952, 2.3200, 356.0443, 155.792206, 100.0, 32.0,Walking,High, 99.7536, 1.0648, 96.8684, 1.6642,-619.3480, 0.0000, 0.0000, 0.0000
26-Jun-2019 23:18:22.098, 0.0100, 0.0164,-0.0595,-0.2635,-0.0195, 0.9022,-0.1679, 1.0251,-0.1818, 0.2779,-0.0356,-0.2391,41.401803,-73.372952, 2.3200, 356.0443, 155.792206, 100.0, 32.0,Walking,High, 99.7536, 1.0648, 99.2229, 2.6627,-616.7416, 0.0000, 0.0000, 0.0000
26-Jun-2019 23:18:22.108, 0.0106, 0.0159,-0.0640,-0.2688,-0.0202, 0.9001,-0.1679, 1.0251,-0.1818, 0.2827,-0.0367,-0.2397,41.401803,-73.372952, 2.3200, 353.1953, 155.792206, 100.0, 32.0,Walking,High, 99.7536, 1.0648, 99.2229, 2.6627,-616.7416, 0.0000, 0.0000, 0.0000
26-Jun-2019 23:18:22.117, 0.0110, 0.0150,-0.0638,-0.2771,-0.0230, 0.8929,-0.1611, 0.9847,-0.1810, 0.2920,-0.0388,-0.2410,41.401803,-73.372952, 2.3200, 353.1953, 155.792206, 100.0, 32.0,Walking,High, 99.7536, 1.0648, 99.2229, 2.6627,-616.7416, 0.0000, 0.0000, 0.0000
26-Jun-2019 23:18:22.136, 0.0096, 0.0158,-0.0702,-0.2892,-0.0269, 0.8891,-0.1472, 0.8933,-0.1834, 0.3052,-0.0420,-0.2430,41.401803,-73.372952, 2.3200, 353.1953, 155.792206, 100.0, 32.0,Walking,High, 99.7536, 1.0648, 99.2229, 2.6627,-616.7416, 0.0000, 0.0000, 0.0000
26-Jun-2019 23:18:22.140, 0.0093, 0.0179,-0.0726,-0.3021,-0.0292, 0.8789,-0.1413, 0.8444,-0.1824, 0.3172,-0.0450,-0.2450,41.401803,-73.372952, 2.3200, 353.1953, 155.792206, 100.0, 32.0,Walking,High, 99.7536, 1.0648, 100.9046, 2.9955,-613.8093, 0.0000, 0.0000, 0.0000
26-Jun-2019 23:18:22.146, 0.0083, 0.0162,-0.0749,-0.3021,-0.0292, 0.8789,-0.1413, 0.8444,-0.1824, 0.3172,-0.0450,-0.2450,41.401803,-73.372952, 2.3200, 353.1953, 155.792206, 100.0, 32.0,Walking,High, 99.7536, 1.0648, 100.9046, 2.9955,-613.8093, 0.0000, 0.0000, 0.0000
26-Jun-2019 23:18:22.156, 0.0090, 0.0143,-0.0771,-0.3068,-0.0298, 0.8731,-0.1354, 0.7891,-0.1835, 0.3210,-0.0460,-0.2457,41.401803,-73.372952, 2.3200, 353.1953, 155.792206, 100.0, 32.0,Walking,High, 99.7536, 1.0648, 100.9046, 2.9955,-613.8093, 0.0000, 0.0000, 0.0000
26-Jun-2019 23:18:22.168, 0.0078, 0.0154,-0.0791,-0.3159,-0.0345, 0.8674,-0.1305, 0.7327,-0.1835, 0.3313,-0.0488,-0.2477,41.401803,-73.372952, 2.3200, 350.3725, 155.792206, 100.0, 32.0,Walking,High, 99.7536, 1.0648, 100.9046, 2.9955,-613.8093, 0.0000, 0.0000, 0.0000
26-Jun-2019 23:18:22.177, 0.0091, 0.0157,-0.0808,-0.3228,-0.0353, 0.8633,-0.1244, 0.6710,-0.1844, 0.3375,-0.0507,-0.2491,41.401803,-73.372952, 2.3200, 350.3725, 155.792206, 100.0, 32.0,Walking,High, 99.7536, 1.0648, 100.9046, 2.9955,-613.8093, 0.0000, 0.0000, 0.0000
26-Jun-2019 23:18:22.195, 0.0067, 0.0163,-0.0844,-0.3290,-0.0376, 0.8588,-0.1049, 0.5392,-0.1817, 0.3454,-0.0533,-0.2511,41.401803,-73.372952, 2.3200, 350.3725, 155.792206, 100.0, 32.0,Walking,High, 99.7536, 1.0648, 99.0547, 5.4917,-614.9496, 0.0000, 0.0000, 0.0000
26-Jun-2019 23:18:22.200, 0.0074, 0.0163,-0.0855,-0.3374,-0.0394, 0.8528,-0.0966, 0.4690,-0.1825, 0.3518,-0.0558,-0.2532,41.401803,-73.372952, 2.3200, 350.3725, 155.792206, 100.0, 32.0,Walking,High, 99.7536, 1.0648, 99.0547, 5.4917,-614.9496, 0.0000, 0.0000, 0.0000
26-Jun-2019 23:18:22.205, 0.0087, 0.0153,-0.0913,-0.3374,-0.0394, 0.8528,-0.0966, 0.4690,-0.1825, 0.3518,-0.0558,-0.2532,41.401803,-73.372952, 2.3200, 348.9123, 155.792206, 100.0, 32.0,Walking,High, 99.7536, 1.0648, 99.0547, 5.4917,-614.9496, 0.0000, 0.0000, 0.0000
26-Jun-2019 23:18:22.215, 0.0113, 0.0164,-0.0933,-0.3398,-0.0428, 0.8442,-0.0822, 0.3297,-0.1798, 0.3566,-0.0581,-0.2554,41.401803,-73.372952, 2.3200, 348.9123, 155.792206, 100.0, 32.0,Walking,High, 99.7536, 1.0648, 99.0547, 5.4917,-614.9496, 0.0000, 0.0000, 0.0000
26-Jun-2019 23:18:22.226, 0.0077, 0.0144,-0.0976,-0.3398,-0.0428, 0.8442,-0.0822, 0.3297,-0.1798, 0.3566,-0.0581,-0.2554,41.401803,-73.372952, 2.3200, 348.9123, 155.792206, 100.0, 32.0,Walking,High, 99.7536, 1.0648, 99.0547, 5.1589,-611.6917, 0.0000, 0.0000, 0.0000
26-Jun-2019 23:18:22.235, 0.0075, 0.0144,-0.0999,-0.3438,-0.0458, 0.8367,-0.0751, 0.2595,-0.1784, 0.3598,-0.0602,-0.2575,41.401803,-73.372952, 2.3200, 348.9123, 155.792206, 100.0, 32.0,Walking,High, 99.7536, 1.0648, 99.0547, 5.1589,-611.6917, 0.0000, 0.0000, 0.0000
26-Jun-2019 23:18:22.244, 0.0082, 0.0164,-0.1002,-0.3452,-0.0478, 0.8337,-0.0594, 0.0989,-0.1752, 0.3613,-0.0622,-0.2597,41.401803,-73.372952, 2.3200, 348.9123, 155.792206, 100.0, 32.0,Walking,High, 99.7536, 1.0648, 99.0547, 5.1589,-611.6917, 0.0000, 0.0000, 0.0000
26-Jun-2019 23:18:22.255, 0.0096, 0.0169,-0.1017,-0.3452,-0.0478, 0.8337,-0.0594, 0.0989,-0.1752, 0.3613,-0.0622,-0.2597,41.401803,-73.372952, 2.3200, 347.4516, 155.792206, 100.0, 32.0,Walking,High, 99.7536, 1.0648, 99.0547, 5.1589,-611.6917, 0.0000, 0.0000, 0.0000
26-Jun-2019 23:18:22.264, 0.0075, 0.0162,-0.1066,-0.3427,-0.0471, 0.8320,-0.0553, 0.0138,-0.1736, 0.3608,-0.0640,-0.2619,41.401803,-73.372952, 2.3200, 347.4516, 155.792206, 100.0, 32.0,Walking,High, 99.7536, 1.0648, 99.7274, 5.1589,-609.7368, 0.0000, 0.0000, 0.0000
26-Jun-2019 23:18:22.274, 0.0057, 0.0162,-0.1097,-0.3424,-0.0494, 0.8278,-0.0404,-0.1691,-0.1669, 0.3583,-0.0656,-0.2641,41.401803,-73.372952, 2.3200, 347.4516, 155.792206, 100.0, 32.0,Walking,High, 99.7536, 1.0648, 99.7274, 5.1589,-609.7368, 0.0000, 0.0000, 0.0000
26-Jun-2019 23:18:22.284, 0.0085, 0.0170,-0.1137,-0.3424,-0.0494, 0.8278,-0.0404,-0.1691,-0.1669, 0.3583,-0.0656,-0.2641,41.401803,-73.372952, 2.3200, 345.1442, 155.792206, 100.0, 32.0,Walking,High, 99.7536, 1.0648, 99.7274, 5.1589,-609.7368, 0.0000, 0.0000, 0.0000
26-Jun-2019 23:18:22.296, 0.0079, 0.0164,-0.1153,-0.3370,-0.0501, 0.8223,-0.0329,-0.2702,-0.1660, 0.3536,-0.0671,-0.2663,41.401803,-73.372952, 2.3200, 345.1442, 155.792206, 100.0, 32.0,Walking,High, 99.7536, 1.0648, 99.7274, 5.1589,-609.7368, 0.0000, 0.0000, 0.0000
26-Jun-2019 23:18:22.314, 0.0089, 0.0153,-0.1229,-0.3310,-0.0519, 0.8231,-0.0148,-0.4659,-0.1590, 0.3466,-0.0684,-0.2684,41.401803,-73.372952, 2.3200, 345.1442, 155.792206, 100.0, 32.0,Walking,High, 99.7536, 1.0648, 98.3820, 4.8261,-608.1078, 0.0000, 0.0000, 0.0000
26-Jun-2019 23:18:22.320, 0.0089, 0.0153,-0.1229,-0.3214,-0.0540, 0.8184,-0.0148,-0.4659,-0.1590, 0.3375,-0.0694,-0.2707,41.401803,-73.372952, 2.3200, 345.1442, 155.792206, 100.0, 32.0,Walking,High, 99.7536, 1.0648, 98.3820, 4.8261,-608.1078, 0.0000, 0.0000, 0.0000
26-Jun-2019 23:18:22.323, 0.0083, 0.0157,-0.1261,-0.3214,-0.0540, 0.8184,-0.0073,-0.5637,-0.1571, 0.3375,-0.0694,-0.2707,41.401803,-73.372952, 2.3200, 345.1442, 155.792206, 100.0, 32.0,Walking,High, 99.7536, 1.0648, 98.3820, 4.8261,-608.1078, 0.0000, 0.0000, 0.0000
26-Jun-2019 23:18:22.333, 0.0102, 0.0157,-0.1327,-0.3111,-0.0543, 0.8189, 0.0153,-0.7743,-0.1530, 0.3259,-0.0702,-0.2729,41.401803,-73.372952, 2.3200, 345.1442, 155.792206, 100.0, 32.0,Walking,High, 99.7536, 1.0648, 98.3820, 4.8261,-608.1078, 0.0000, 0.0000, 0.0000
26-Jun-2019 23:18:22.343, 0.0096, 0.0131,-0.1349,-0.3111,-0.0543, 0.8189, 0.0153,-0.7743,-0.1530, 0.3259,-0.0702,-0.2729,41.401803,-73.372952, 2.3200, 341.2314, 155.792206, 100.0, 32.0,Walking,High, 99.7536, 1.0648, 93.8413, 3.9940,-606.3159, 0.0000, 0.0000, 0.0000
26-Jun-2019 23:18:22.357, 0.0065, 0.0152,-0.1427,-0.2965,-0.0574, 0.8145, 0.0273,-0.8880,-0.1508, 0.3119,-0.0706,-0.2753,41.401803,-73.372952, 2.3200, 341.2314, 155.792206, 100.0, 32.0,Walking,High, 99.7536, 1.0648, 93.8413, 3.9940,-606.3159, 0.0000, 0.0000, 0.0000
26-Jun-2019 23:18:22.373, 0.0098, 0.0150,-0.1561,-0.2836,-0.0555, 0.8116, 0.0523,-1.1305,-0.1449, 0.2951,-0.0707,-0.2776,41.401803,-73.372952, 2.3200, 341.2314, 155.792206, 100.0, 32.0,Walking,High, 99.7536, 1.0648, 93.8413, 3.9940,-606.3159, 0.0000, 0.0000, 0.0000
26-Jun-2019 23:18:22.379, 0.0098, 0.0150,-0.1561,-0.2744,-0.0557, 0.8001, 0.0523,-1.1305,-0.1449, 0.2889,-0.0707,-0.2784,41.401803,-73.372952, 2.3200, 341.2314, 155.792206, 100.0, 32.0,Walking,High, 99.7536, 1.0648, 93.8413, 3.9940,-606.3159, 0.0000, 0.0000, 0.0000
26-Jun-2019 23:18:22.387, 0.0129, 0.0145,-0.1793,-0.2617,-0.0555, 0.8038, 0.0654,-1.2485,-0.1437, 0.2757,-0.0705,-0.2800,41.401803,-73.372952, 2.3200, 341.2314, 155.792206, 100.0, 32.0,Walking,High, 99.7536, 1.0648, 91.1505, 2.6627,-605.3385, 0.0000, 0.0000, 0.0000
26-Jun-2019 23:18:22.403, 6.1026, 0.3617,-7.9107,-0.2053,-0.0446, 0.7949, 2.1784,-8.0397, 0.3406, 0.2204,-0.0591,-0.2826,41.401803,-73.372952, 2.3200, 341.2314, 155.792206, 100.0, 32.0,Walking,High, 99.7536, 1.0648, 91.1505, 2.6627,-605.3385, 0.0000, 0.0000, 0.0000
26-Jun-2019 23:18:22.407, 6.1026, 0.3617,-7.9107, 6.0213, 0.3634,-6.9140, 2.1784,-8.0397, 0.3406, 0.0814, 0.0016,-0.2807,41.401803,-73.372952, 2.3200, 333.1175, 155.792206, 100.0, 32.0,Walking,High, 99.7536, 1.0648, 91.1505, 2.6627,-605.3385, 0.0000, 0.0000, 0.0000
26-Jun-2019 23:18:22.418,-0.1853,-1.3002,-8.1124, 6.1620, 0.4712,-6.9184, 14.1993,-21.8432, 1.0000,-0.0598, 0.1097,-0.2755,41.401803,-73.372952, 2.3200, 333.1175, 155.792206, 100.0, 32.0,Walking,High, 99.7536, 1.0648, 91.1505, 2.6627,-605.3385, 0.0000, 0.0000, 0.0000
26-Jun-2019 23:18:22.428,-1.0745,-1.2394,-8.0202,-0.1580,-1.2041,-7.1174,-2.9007, 2.9953,-0.3107,-0.0274, 0.0963,-0.2771,41.401803,-73.372952, 2.3200, 333.1175, 155.792206, 100.0, 32.0,Walking,High, 99.7536, 1.0648, 79.5465,-6.1574,-610.3884, 0.0000, 0.0000, 0.0000
26-Jun-2019 23:18:22.436,-0.5008,-0.6921,-7.0846,-0.1580,-1.2041,-7.1174,-2.9007, 2.9953,-0.3107,-0.0274, 0.0963,-0.2771,41.401803,-73.372952, 2.3200, 340.1604, 155.792206, 100.0, 32.0,Walking,High, 99.7536, 1.0648, 79.5465,-6.1574,-610.3884, 0.0000, 0.0000, 0.0000
26-Jun-2019 23:18:22.448,-0.7843,-0.3691,-4.1474,-0.4903,-0.6397,-6.0861,-3.0162, 1.0616,-0.2828,-0.0105, 0.0524,-0.2819,41.401803,-73.372952, 2.3200, 340.1604, 155.792206, 100.0, 32.0,Walking,High, 99.7536, 1.0648, 79.5465,-6.1574,-610.3884, 0.0000, 0.0000, 0.0000
26-Jun-2019 23:18:22.455,-0.4595,-0.2930,-2.4888,-0.4393,-0.2621,-1.4894,-1.8799,-0.4211,-0.1720,-0.0201, 0.0309,-0.2838,41.401803,-73.372952, 2.3200, 340.1604, 155.792206, 100.0, 32.0,Walking,High, 99.7536, 1.0648, 79.5465,-6.1574,-610.3884, 0.0000, 0.0000, 0.0000
26-Jun-2019 23:18:22.461,-0.2117,-0.0611,-1.5642,-0.4393,-0.2621,-1.4894,-1.0235,-0.7351,-0.0059,-0.0201, 0.0309,-0.2838,41.401803,-73.372952, 2.3200, 340.1604, 155.792206, 100.0, 32.0,Walking,High, 99.7536, 1.0648, 78.7056, 0.0000,-609.2481, 0.0000, 0.0000, 0.0000
